time,seconds_elapsed,z,y,x
1782891071019539500,0.03653955078125,-0.020890812337398527,-0.11936780890878289,-0.07494845614153892
1782891071029561600,0.0465615234375,-0.049507250490784645,-0.11103368667247704,0.001596037019789219
1782891071039583500,0.05658349609375,0.027414661148190498,-0.13811706090653314,0.039299342872388655
1782891071049605400,0.06660546875,-0.02073825212419033,-0.12179977616290562,0.033003969055227934
1782891071059628500,0.076628662109375,-0.017272037318348882,-0.09478336621783673,-0.028099866933375597
1782891071069650400,0.086650390625,0.0069528878778219215,-0.1183425849137362,-0.056373008074425156
1782891071079672300,0.09667236328125,-0.03990940106213092,-0.09691929140114225,-0.017829561603255568
1782891071089694500,0.106694580078125,-0.0035480478703975677,-0.1077440522762481,0.014795892995782196
1782891071099716400,0.11671630859375,-0.014001052823662758,-0.11775883020902983,0.030506197422742843
1782891071109738200,0.12673828125,-0.026254969719052314,-0.10719913174458778,-0.011934329552203415
1782891071119760600,0.1367607421875,-0.002467266896367073,-0.1080176724527031,-0.03363780997935682
1782891071129782500,0.146782470703125,-0.034215573334693904,-0.09561694923145696,-0.0383356124067679
1782891071139804700,0.1568046875,-0.0077437459945678706,-0.1153755518016871,0.005389328355528414
1782891071149826600,0.16682666015625,-0.0008522329151630402,-0.1284504753569141,0.023341201164200902
1782891071159848400,0.176848388671875,-0.015503858602046965,-0.11637762325000948,-0.019993315508402883
1782891071169870600,0.18687060546875,-0.00682487758398056,-0.11171198779284022,-0.04483487476557493
1782891071179892500,0.196892578125,-0.017170915031433105,-0.09025883799809963,-0.03954016589093953
1782891071189915400,0.206915283203125,-0.026612697115540502,-0.11565099860904737,-0.017013788240961728
1782891071199937500,0.2169375,-0.011643676042556762,-0.13995425887159071,0.02101659414153546
1782891071209959400,0.22695947265625,-0.022554361635446548,-0.12220077644553966,0.0049479777961969375
1782891071219981300,0.236981201171875,-0.015224457138776779,-0.12155688905143178,-0.02238441189602017
1782891071230003700,0.247003662109375,-0.01045125138759613,-0.10846617427202872,-0.0423496703537181
1782891071240025600,0.257025634765625,-0.02153904711306095,-0.09911122108800337,-0.004602086967974901
1782891071250047500,0.267047607421875,-0.016753566402196884,-0.12348561035799793,0.006280979965627193
1782891071260069600,0.277069580078125,-0.00596738397181034,-0.1083060152742546,0.004570376655459404
1782891071270091500,0.287091552734375,-0.010894903501868248,-0.10532350146528333,-0.01354450469519943
1782891071280113400,0.297113525390625,-0.010607903254032134,-0.10566297168587334,-0.02903638059850782
1782891071290135300,0.30713525390625,-0.011667056918144226,-0.11759690851243212,-0.012261406082101165
1782891071300157400,0.317157470703125,-0.007030629289150238,-0.11704239816851914,-0.005826148870214819
1782891071310179600,0.3271796875,-0.015697919869422913,-0.11870080550056882,-0.007954721864126622
1782891071320202500,0.337202392578125,-0.0168880064368248,-0.10784097331208176,0.0038515608616173265
1782891071330224600,0.347224609375,-0.012107201901078224,-0.10951864246702753,-0.009227810539864004
1782891071340246500,0.35724658203125,-0.013470891469717024,-0.10766772650387138,-0.030401714134961365
1782891071350268700,0.3672685546875,-0.003454524368047714,-0.11163680366477928,-0.021896701444312928
1782891071360290600,0.37729052734375,-0.00973404302895069,-0.10851612349413335,0.003699548637680709
1782891071370312400,0.3873125,-0.004643441891670227,-0.10191377522018738,-0.0045642757082358
1782891071380334600,0.39733447265625,-0.006592237871885299,-0.10544965772875584,-0.009767178113572299
1782891071390356500,0.4073564453125,-0.022165070056915284,-0.11129534241650253,-0.006310242592729627
1782891071400378400,0.41737841796875,-0.02009293995797634,-0.09616792504456825,-0.0024582798723131417
1782891071410400500,0.427400390625,-0.00977495956122875,-0.10678208450945094,0.0056975905871018764
1782891071420422700,0.437422607421875,-0.006930091524124145,-0.1043981119823642,-0.011624167624488473
1782891071430444500,0.447444580078125,-0.009030278673768042,-0.0942190012001898,-0.012984496192261576
1782891071440466400,0.457466552734375,-0.005906593695282936,-0.10076634961757808,-0.025355828922241926
1782891071450489600,0.467489501953125,-0.014603694891929626,-0.09701730841551907,-0.013657865409180521
1782891071460511500,0.477511474609375,-0.02508300333023071,-0.10136808750354684,-0.022488822118565437
1782891071470533600,0.48753369140625,-0.008626374047994613,-0.1049341185552068,-0.016453779738023876
1782891071480555500,0.497555419921875,-0.005340191984176635,-0.09970135073456912,-0.006951207377389073
1782891071490577400,0.507577392578125,-0.008943184912204742,-0.10643524383315815,-0.022098324963636694
1782891071500599300,0.517599365234375,-0.015385200658440588,-0.10604960551643744,-0.022043635634332894
1782891071510621400,0.527621337890625,-0.0007294833183288574,-0.10216496436912566,-0.019048764667287468
1782891071520643600,0.5376435546875,-0.010303367349505424,-0.08646781168468295,-0.013169862696528435
1782891071530665500,0.54766552734375,-0.023026655322313308,-0.08981540507953613,-0.011705891091190277
1782891071540687600,0.5576875,-0.023023732712864873,-0.09686690362677909,-0.033962329225987194
1782891071550709500,0.56770947265625,-0.00746843618452549,-0.0879604065963067,-0.020124029215984045
1782891071560731400,0.5777314453125,-0.0173585465580225,-0.09307563071819022,-0.005760645885951817
1782891071570754600,0.587754638671875,-0.010626607954502106,-0.09162671968466601,-0.002065590760298073
1782891071580776400,0.5977763671875,-0.012873510098457336,-0.08956308341943658,0.007005275652185082
1782891071590798600,0.607798583984375,-0.010181786796450614,-0.07347084873649291,-0.004570778514258563
1782891071600820500,0.617820556640625,-0.017973463585972786,-0.07138626101478003,-0.006408332672342657
1782891071610842400,0.62784228515625,-0.0060083005040884015,-0.0892067077298183,-0.007572992537543177
1782891071620864500,0.637864501953125,-0.005259527963399887,-0.09535227954643778,-0.00713690267521888
1782891071630886700,0.64788671875,-0.015287000980973242,-0.07583343141567893,0.0009992767030373216
1782891071640908500,0.657908447265625,-0.01723696600496769,-0.08674328589150682,-0.017023980841413138
1782891071650930400,0.667930419921875,-0.02173252385854721,-0.09573151552183554,-0.006362301573529839
1782891071660952600,0.67795263671875,-0.008124854266643524,-0.09379644667287357,0.0012094123223796486
1782891071670974500,0.687974365234375,-0.015163666862249374,-0.07089551835577003,0.0044145285066217186
1782891071680996400,0.697996337890625,-0.011574702459573745,-0.07096758807813748,-0.002703961729072034
1782891071691018500,0.7080185546875,-0.01741992135643959,-0.07235243916581384,-0.016774499592371282
1782891071701041400,0.71804150390625,-0.018623451927304267,-0.08028152426518499,-0.006803213741444051
1782891071711063300,0.728063232421875,-0.01803074673116207,-0.07799307540128939,0.007427008195593953
1782891071721085400,0.73808544921875,-0.013248188629746437,-0.08024517431017011,0.007841215019673109
1782891071731107600,0.748107666015625,-0.011757657811045647,-0.07855163173265754,-0.01011829310618341
1782891071741129500,0.75812939453125,-0.02134264775812626,-0.07935047222645952,-0.004550722106918693
1782891071751151600,0.768151611328125,-0.02613572725355625,-0.08029690449740737,0.007196560440585017
1782891071761173500,0.778173583984375,-0.003999298769235611,-0.07276882881382479,-0.018580599166266618
1782891071771195400,0.7881953125,-0.002506429862976074,-0.07362362814540975,-0.010954122875817119
1782891071781217500,0.798217529296875,-0.022267945909500122,-0.07455995914745144,-0.007490026961825788
1782891071791239400,0.808239501953125,-0.025868016228079795,-0.07199582601417787,0.00021630963180214164
1782891071801261300,0.81826123046875,-0.0127051677942276,-0.07778061996069736,-0.0051166123613715165
1782891071811283700,0.82828369140625,-0.01091477724611759,-0.0661877151241526,-0.006714512544684112
1782891071821306400,0.838306396484375,-0.007927870389819144,-0.06755895781158469,-0.009550831949152051
1782891071831328500,0.84832861328125,-0.005841711765527725,-0.06889832578971981,-0.004531286754086613
1782891071841350700,0.8583505859375,-0.009136661657691001,-0.07916977276415564,-0.015649002693779765
1782891071851372500,0.86837255859375,-0.018868951120972633,-0.07912323934184387,-0.010316738287732004
1782891071861394400,0.87839453125,-0.003765490013360977,-0.07134367311522365,-0.005330876166559756
1782891071871416600,0.88841650390625,-0.002129997766017914,-0.06915931481346488,-0.010356778037175536
1782891071881438500,0.8984384765625,-0.014705986222624779,-0.06925421742214821,-0.0186364940719679
1782891071891460400,0.90846044921875,-0.012315291693806648,-0.0736403874839656,-0.01079480412825942
1782891071901482500,0.918482421875,-0.017557284000515937,-0.0705164650434628,-0.008504537766613066
1782891071911504400,0.92850439453125,-0.01785831277370453,-0.07787347674276679,-0.002101429258659482
1782891071921526500,0.938526611328125,-0.013823358169198035,-0.07879802597546949,-0.007242518474161625
1782891071931548700,0.948548583984375,-0.022658991053700447,-0.06406817482006735,-0.01351885879728943
1782891071941570600,0.958570556640625,-0.011737784066796302,-0.06755364231565035,-0.010734086916968226
1782891071951593500,0.968593505859375,-0.009045476242899895,-0.06854964934936725,-0.003875635856948793
1782891071961615600,0.97861572265625,-0.021317513316869735,-0.07704883508742787,-0.011870689731463789
1782891071971637500,0.988637451171875,-0.013539280530810355,-0.077937317492906,-0.011519940065033733
1782891071981659400,0.998659423828125,-0.010101707297563552,-0.08629878439386375,-0.000373290291801095
1782891071991681500,1.008681640625,-0.005759878700971603,-0.05923799645095132,0.00002992021422833204
1782891072001703400,1.018703369140625,-0.0063613517254590985,-0.052207632023282345,-0.024713731626421213
1782891072011725300,1.028725341796875,-0.008610007435083389,-0.06724922514213248,-0.011497326374426483
1782891072021747700,1.038747802734375,-0.023429390904307363,-0.05804746235897764,-0.022416779795661566
1782891072031769600,1.04876953125,-0.01969429602921009,-0.06065179963847622,-0.011046331203915178
1782891072041791500,1.05879150390625,-0.008025485545396805,-0.06980185963385738,-0.005184051574394106
1782891072051813600,1.068813720703125,-0.01730827767550945,-0.06173413324877619,-0.004695683535560965
1782891072061835500,1.07883544921875,-0.01372165136039257,-0.07530192748801783,-0.011201996689662336
1782891072071858400,1.0888583984375,-0.008045359289646148,-0.05778258261140436,0.003526347495242953
1782891072081880600,1.098880615234375,-0.024206220495700835,-0.05185614257133565,-0.020909955429285764
1782891072091902500,1.10890234375,0.004075286614894867,-0.07268047467693686,-0.013103519462049006
1782891072101924400,1.11892431640625,-0.012682371440529822,-0.06860958110936917,-0.013737506516650318
1782891072111946500,1.128946533203125,-0.019267010527849196,-0.05807650579037144,-0.011120017494633793
1782891072121968000,1.138968017578125,-0.020311551144719123,-0.050219271217659116,-0.0035443215433508157
1782891072131990000,1.148989990234375,-0.01567278542816639,-0.04584038941315375,-0.011471570878662168
1782891072142012200,1.15901220703125,-0.018815759629011154,-0.05653713086126372,0.005964388297125697
1782891072152034000,1.169033935546875,-0.017023615515232085,-0.0605004450016655,-0.003025850627198815
1782891072162056000,1.179055908203125,-0.021214052942395208,-0.05457582245934754,-0.0029979031743481753
1782891072172077800,1.189077880859375,-0.02346621578335762,-0.05392122187498025,0.004935483640804887
1782891072182100000,1.199099853515625,-0.014195114091038703,-0.07086973546054214,-0.011310535098053515
1782891072192121900,1.209121826171875,-0.015542437046766281,-0.05870620026234537,-0.012656725542619823
1782891072202145000,1.21914501953125,-0.007462590965628624,-0.04416528667462989,-0.00690879300776869
1782891072212167000,1.2291669921875,-0.010754618248343468,-0.05078034829967655,-0.018677995126135646
1782891072222189000,1.23918896484375,-0.012103694769740103,-0.049206596176931634,-0.013701777616143225
1782891072232211200,1.249211181640625,-0.021986206358671188,-0.05699335932931862,0.011613390502147375
1782891072242233000,1.259233154296875,-0.023042437413334844,-0.051249819841794664,-0.0030679727358743545
1782891072252255000,1.2692548828125,-0.004494973331689835,-0.047002875587577,-0.006733801767043769
1782891072262276900,1.27927685546875,-0.017966449323296545,-0.05494033578964881,-0.003649827744439244
1782891072272299000,1.289299072265625,-0.0033048867642879484,-0.05249622144000604,0.007558817881718277
1782891072282321000,1.29932080078125,-0.01931961749792099,-0.042759520663088184,0.0019086101002991197
1782891072292342800,1.3093427734375,-0.007801029139757156,-0.04120981613621116,0.004005947705730796
1782891072302365200,1.319365234375,-0.010640636479854583,-0.05438523179069161,-0.010650390688888728
1782891072312387000,1.329386962890625,-0.016484686332941055,-0.06354690002547576,-0.007479907426610589
1782891072322409000,1.339408935546875,-0.0075075991511344906,-0.03639052448729053,0.00037318069394677876
1782891072332432100,1.34943212890625,-0.004818213936686516,-0.05732466450976208,-0.0014718991834670305
1782891072342454000,1.3594541015625,-0.011409282764792441,-0.06820919274808838,0.0041661797687411305
1782891072352476000,1.369475830078125,-0.014258242455124854,-0.053108581184688954,0.003975041110813617
1782891072362498000,1.379498046875,-0.01290858141183853,-0.04932058707857504,-0.011630378169566392
1782891072372520000,1.38952001953125,-0.02877250549793243,-0.05276639841720462,-0.0026442308984696863
1782891072382541800,1.399541748046875,-0.006478840625286102,-0.05764127444457262,-0.012280622239224612
1782891072392564000,1.40956396484375,-0.013821020081639289,-0.06104441568525508,0.0006163418000563978
1782891072402585900,1.4195859375,-0.015921207231283187,-0.04176934971511364,0.0005786766707897186
1782891072412608000,1.42960791015625,-0.016679916644096373,-0.06653170625623316,-0.008376089081354439
1782891072422630100,1.439630126953125,-0.0048643911659717555,-0.04955638686213642,-0.0016507263490930198
1782891072432652000,1.449652099609375,-0.005765139397978783,-0.04272023896547034,-0.0020676000542938708
1782891072442674000,1.459673828125,-0.021636077746748923,-0.04437379659246653,-0.006248319805040955
1782891072452697000,1.469697021484375,-0.022394202637672424,-0.047228656300622965,-0.0012474793104454874
1782891072462719000,1.479718994140625,-0.012968787166476248,-0.04849122358234599,-0.0021676994279026984
1782891072472740900,1.489740966796875,-0.01447451555430889,-0.054543819885887204,-0.008544760179147124
1782891072482763000,1.499762939453125,-0.02360825460255146,-0.060401185878273096,-0.0007963014768436551
1782891072492785000,1.509784912109375,-0.01822773060798645,-0.04471336727775633,-0.005884235733002424
1782891072502806800,1.519806884765625,-0.008954290828108787,-0.05308516377648338,-0.005250687069818377
1782891072512829200,1.5298291015625,-0.022121815437078474,-0.06510779266664758,0.011938823064230381
1782891072522851000,1.53985107421875,-0.019279285487532615,-0.052413109733816236,-0.015552702712453901
1782891072532873000,1.549873046875,-0.007912672820687293,-0.042970724861510094,-0.01743464400153607
1782891072542895000,1.55989501953125,-0.004326631027460098,-0.040805454852711406,-0.005152852718532085
1782891072552917000,1.5699169921875,-0.019144260931015015,-0.044964930886030194,-0.007033040441945195
1782891072562939000,1.57993896484375,-0.019601357048749924,-0.05112418416813016,-0.013583010074682532
1782891072572961000,1.5899609375,-0.0249877262622118,-0.037970359290949995,-0.006916903248988092
1782891072582984000,1.59998388671875,-0.01406710379719734,-0.04535579336713999,-0.009579327391274272
1782891072593005800,1.610005859375,-0.026343232524394987,-0.05850043029086664,0.006045271513611078
1782891072603028000,1.620028076171875,-0.009279284998774527,-0.05089260390195995,-0.024187515795230864
1782891072613049900,1.6300498046875,-0.0038970074385404584,-0.05556956447074189,-0.005272606640681624
1782891072623072000,1.640072021484375,-0.019013328027725217,-0.04451747937947512,0.011163527842797338
1782891072633094100,1.65009423828125,-0.023652093744277954,-0.04050581431901082,-0.0007405161689966916
1782891072643116000,1.660115966796875,-0.010633622217178344,-0.05201201811963692,0.003375431249849498
1782891072653138000,1.670137939453125,-0.0196153855741024,-0.05028323983196169,-0.004401705557666719
1782891072663160000,1.68016015625,-0.018724574214220045,-0.05665631852783262,-0.011316124588623641
1782891072673182000,1.690181884765625,-0.008403086686134337,-0.03919559023696929,-0.001405629014223814
1782891072683203800,1.700203857421875,-0.005107552272081375,-0.03736486767847091,-0.019029256249219178
1782891072693226000,1.71022607421875,-0.009597849428653717,-0.042612376410514116,-0.006420534566789865
1782891072703248100,1.720248046875,-0.017081483182311057,-0.04383134201252833,-0.014642127206176518
1782891072713270800,1.730270751953125,-0.029808862808346746,-0.04872671283865347,-0.00027812282163649794
1782891072723293200,1.740293212890625,-0.020837620845437048,-0.04050168613316491,0.0033976065490394828
1782891072733315000,1.750315185546875,-0.032658991542458535,-0.049183772423770276,0.006701287736929953
1782891072743337000,1.7603369140625,-0.005433130964636802,-0.04706111771399155,0.0016833865096792578
1782891072753359000,1.770359130859375,-0.0196545485407114,-0.03769530520923436,-0.01318685036394745
1782891072763381000,1.780381103515625,-0.024142507609724997,-0.03856613322701305,-0.015156579534336924
1782891072773403000,1.79040283203125,-0.00843348182439804,-0.03555506004383787,-0.007980586957745254
1782891072783425000,1.800425048828125,-0.0039449382334947585,-0.0466267083521001,-0.00494063473995775
1782891072793447000,1.810447021484375,-0.0036491701573133466,-0.042486612872686236,0.004816679566726088
1782891072803469000,1.820468994140625,-0.012474866169691085,-0.0421859494256787,-0.0032615590792149304
1782891072813491200,1.8304912109375,-0.012925532546639442,-0.054931083904113616,0.004095123826526105
1782891072823513000,1.84051318359375,-0.015031564915180205,-0.03764516419088468,-0.004803966215625405
1782891072833535000,1.850534912109375,-0.010694412493705749,-0.04316922484198585,-0.00598681932464242
1782891072843558100,1.86055810546875,-0.021765841606259346,-0.039089152454119175,-0.002551438048481941
1782891072853580000,1.870580078125,-0.00784837541282177,-0.04484316766988486,0.00021002602148801087
1782891072863602000,1.880601806640625,-0.015183540606498718,-0.05315388163113966,0.005855082703754306
1782891072873624000,1.8906240234375,-0.005608487531542777,-0.03461165998019278,0.004217069705761969
1782891072883646000,1.90064599609375,-0.009051905983686447,-0.047877932255901395,0.00621317542642355
1782891072893667800,1.910667724609375,-0.007710428246855736,-0.03849336025174707,-0.0008403232816606759
1782891072903690000,1.92068994140625,-0.0166962832570076,-0.037480347284302114,-0.007223484980128705
1782891072913712000,1.930712158203125,-0.024184593185782432,-0.040447252532187845,-0.013673830163292586
1782891072923734000,1.940734130859375,-0.023590134423971176,-0.035971531890239564,-0.005488368283212184
1782891072933756200,1.950756103515625,-0.01431552560031414,-0.0569254908580333,-0.001990041306056082
1782891072943778000,1.960778076171875,-0.002948328411579132,-0.043068668810650704,-0.001059592055529356
1782891072953800000,1.970800048828125,-0.014321370819211005,-0.031057109303772448,-0.01645630048867315
1782891072963821800,1.98082177734375,-0.015071312403678892,-0.03609139541024342,-0.014165559202991425
1782891072973845000,1.990844970703125,0.0016869301736354826,-0.051202820628602055,0.004498224734701216
1782891072983867000,2.000866943359375,-0.022255670949816703,-0.04233485637707635,-0.0006502440696582197
1782891072993889000,2.010888916015625,-0.022701661151647567,-0.04637472461871803,0.0077441113207489245
1782891073003911000,2.020910888671875,-0.030334347987174985,-0.050609293448552486,-0.0010734013851732016
1782891073013933000,2.03093310546875,-0.007294248661398888,-0.029448176269792018,-0.01693893290646374
1782891073023955200,2.040955078125,-0.005049100083112716,-0.0427702703859657,-0.010566730993427335
1782891073033977000,2.05097705078125,-0.010439560949802399,-0.03363353566303849,-0.002054046452976763
1782891073043999000,2.0609990234375,-0.01912088005542755,-0.04965202925633639,-0.011627455560117959
1782891073054020900,2.071020751953125,-0.004014496338367462,-0.05088518778048456,-0.011115998906642197
1782891073064043000,2.08104296875,-0.01568915204107761,-0.051535431850142775,-0.0018599121203646063
1782891073074065000,2.09106494140625,-0.011201777493953704,-0.03620850071758032,-0.004431479641422629
1782891073084086800,2.101086669921875,-0.015993103423714638,-0.036292891065403815,-0.004862601067684591
1782891073094109200,2.111109130859375,-0.015994856989383698,-0.046280890589114276,0.0069344754382967945
1782891073104131800,2.1211318359375,-0.017044658303260803,-0.039086449040379376,-0.007560059990733861
1782891073114154000,2.131154052734375,-0.017042320215702057,-0.03691378117641434,-0.01231861616205424
1782891073124176600,2.1411767578125,-0.020485154145956037,-0.046413412661291654,-0.006790317727252841
1782891073134198800,2.15119873046875,-0.011959317862987517,-0.045850116222724314,-0.004359035459719598
1782891073144220700,2.161220703125,-0.008968903875350952,-0.02415001506274566,-0.002851297777891159
1782891073154242600,2.17124267578125,-0.014507833302021026,-0.030502745090331882,-0.01500222922284156
1782891073164264700,2.1812646484375,-0.018549802169203756,-0.037945517110638316,-0.01778886426668614
1782891073174286600,2.19128662109375,-0.020202245551347732,-0.046348731660936025,-0.0077516005074605345
1782891073184308500,2.20130859375,-0.022753683599829672,-0.037790984136052426,-0.017008564076572655
1782891073194330600,2.21133056640625,-0.021408698731660843,-0.03654967883806676,-0.010080883705243468
1782891073204352500,2.2213525390625,-0.009738719204068184,-0.03215418382547795,-0.009424940547160804
1782891073214374700,2.231374755859375,-0.026201778227090834,-0.03042684857621789,-0.00010506780967116356
1782891073224396800,2.241396728515625,-0.016325111857056616,-0.041794027498643846,0.0021503099016845226
1782891073234419700,2.251419677734375,-0.008995791882276534,-0.027680088885035363,-0.0038186084400862455
1782891073244441600,2.261441650390625,-0.01572714596390724,-0.0418494292140007,0.005254522994719445
1782891073254463700,2.271463623046875,-0.01617898138463497,-0.04411381221571937,-0.011080489201843739
1782891073264485600,2.281485595703125,-0.006004793372750282,-0.03613528935089707,-0.013841587945632635
1782891073274507500,2.291507568359375,-0.007947744134068489,-0.03838803671374917,-0.008016060129925609
1782891073284529700,2.30152978515625,-0.014384499183297157,-0.03797616797722876,0.0016955884041264652
1782891073294551600,2.311551513671875,-0.017978139761090278,-0.03632284781225025,-0.008921046145632862
1782891073304573400,2.321573486328125,-0.015733575704693793,-0.033226270036399365,-0.004897891576774418
1782891073314595600,2.331595703125,-0.0006236848562955855,-0.044709092961438,-0.0022730229659006
1782891073324617700,2.34161767578125,-0.02277647995352745,-0.03627902693683281,-0.004169029312953353
1782891073334639600,2.3516396484375,-0.020377602118253707,-0.04567779186312109,-0.010145327243581413
1782891073344661800,2.361661865234375,-0.019027356553077697,-0.03835502949329093,-0.0001638487922027707
1782891073354684700,2.3716845703125,-0.013640987339615822,-0.026678547159675506,0.009250351165235041
1782891073364706600,2.38170654296875,-0.013794716596603392,-0.030259547451604155,-0.0037401729090139266
1782891073374728700,2.391728759765625,-0.01933306150138378,-0.03650952949076891,0.0027464126313105222
1782891073384750600,2.40175048828125,-0.015894319224357602,-0.02034967293171212,0.008133256768807768
1782891073394772500,2.4117724609375,-0.027714520877599715,-0.04076331447772681,-0.003919328868202865
1782891073404794600,2.421794677734375,-0.008414192602038384,-0.023571776783373206,-0.011487097241356969
1782891073414816500,2.43181640625,-0.022186112844943998,-0.015584303427115082,-0.002787109967879951
1782891073424838700,2.441838623046875,-0.015007599517703056,-0.026578575650230047,0.011573241154849529
1782891073434860800,2.45186083984375,-0.015158990687131882,-0.04190769873987883,0.0010841054422780871
1782891073444882700,2.461882568359375,-0.011267828467488288,-0.04217318127565085,0.008158573873154818
1782891073454904600,2.471904541015625,-0.009172317492961882,-0.03154317578766495,0.0021999211970716716
1782891073464926700,2.4819267578125,-0.016651859593391417,-0.028343612561374902,-0.01161956451460719
1782891073474948600,2.491948486328125,-0.0024409634113311766,-0.036624223645310844,-0.0026580036954954264
1782891073484970500,2.501970458984375,-0.009026771542429923,-0.037008254526834934,-0.01598703900910914
1782891073494993700,2.51199365234375,-0.0218985280752182,-0.03564533214317635,-0.011942951250076293
1782891073505015600,2.522015625,-0.027882278659939766,-0.021129717393498868,0.003364325333945453
1782891073515037400,2.532037353515625,-0.013223054188489913,-0.027989976818114517,-0.008816745520941912
1782891073525059600,2.5420595703125,-0.011885083582997322,-0.03893354176729917,-0.012893128114379942
1782891073535081700,2.552081787109375,-0.023262802165746686,-0.03466934498418122,-0.016379691588506103
1782891073545103600,2.562103515625,-0.023709961411356926,-0.030165366362128406,-0.0018640037735924123
1782891073555125800,2.572125732421875,-0.015635376027226446,-0.030066874423716215,0.0006252557588741183
1782891073565147600,2.582147705078125,-0.011893266889452933,-0.024886421312205493,0.0031154651394113895
1782891073575169500,2.59216943359375,-0.01159106907248497,-0.01931537971422076,-0.012205949567817152
1782891073585191700,2.602191650390625,-0.015329671078920363,-0.031426855931617315,-0.005835574285686016
1782891073595213600,2.612213623046875,-0.019821721801161766,-0.028050109507516026,-0.007220087446644902
1782891073605235500,2.6222353515625,-0.026555413970351216,-0.021626250472478566,0.003837020879611373
1782891073615258600,2.632258544921875,-0.01189209784567356,-0.03320159225286916,0.014632372997142373
1782891073625280500,2.642280517578125,-0.020870938593149185,-0.03576185292862356,-0.01285071374475956
1782891073635302700,2.652302734375,-0.02386310614645481,-0.035065011504571884,-0.012475889082998036
1782891073645324800,2.66232470703125,-0.019825228932499883,-0.05451391793796792,-0.008718290115147829
1782891073655346700,2.6723466796875,-0.019970774883031842,-0.026265253651048988,0.00784223793298006
1782891073665368600,2.68236865234375,-0.01368073482811451,-0.025283457805775105,-0.016207988283410666
1782891073675390700,2.692390625,-0.01682429355084896,-0.024761224029958246,0.0022144246464595196
1782891073685412600,2.70241259765625,-0.009495558097958564,-0.03844044275442138,-0.009891206352040171
1782891073695434500,2.7124345703125,-0.02296644956767559,-0.0319931480448693,0.00707655079010874
1782891073705456600,2.72245654296875,-0.025655250260233877,-0.04590791082456708,-0.011784582350589334
1782891073715478800,2.732478759765625,-0.011439093381166457,-0.03324806174309924,-0.005588979113474488
1782891073725500700,2.742500732421875,-0.010243161594867706,-0.024971761508099734,0.011383454203791915
1782891073735522600,2.7525224609375,-0.02625906137228012,-0.021368932976853102,-0.005798932069726288
1782891073745544700,2.762544677734375,-0.022515783190727234,-0.03462534144567325,-0.00487454723380506
1782891073755567600,2.772567626953125,-0.01698211446106434,-0.03139647905966267,-0.012935688614472746
1782891073765589800,2.78258984375,-0.021923662516474724,-0.02727843101527542,-0.010365801593847573
1782891073775611600,2.792611572265625,0.0069517188340425485,-0.017033132262248545,-0.011975428747572004
1782891073785633500,2.802633544921875,-0.011460720691084862,-0.0277515649523586,-0.00637877778429538
1782891073795655700,2.81265576171875,-0.021188918501138687,-0.03939840106638148,0.00024732582457363605
1782891073805677600,2.822677490234375,-0.004876666125655174,-0.029678678823728114,0.003439692125096917
1782891073815699500,2.832699462890625,-0.011910802546143531,-0.0411918786207214,0.0024994886655360458
1782891073825721900,2.842721923828125,-0.00397884050309658,-0.03264076176602393,0.004044270422123373
1782891073835743700,2.85274365234375,-0.019994155758619306,-0.02359375115316361,-0.0244631909314543
1782891073845765600,2.862765625,-0.006377133816480636,-0.033537436611112206,0.0031056013325229284
1782891073855787500,2.87278759765625,0.006043371817469597,-0.032613417101372034,-0.00979607541449368
1782891073865809700,2.8828095703125,-0.020299860706925393,-0.03537418705159798,-0.006671221392229199
1782891073875831600,2.89283154296875,-0.016713818913698195,-0.035486963243689384,0.006656681410223245
1782891073885854700,2.902854736328125,-0.01641512822806835,-0.035793325779121365,0.004246368865482509
1782891073895876600,2.912876708984375,-0.013572013756632804,-0.018488281240314243,-0.0006370923271402716
1782891073905898500,2.9228984375,-0.001755319234728813,-0.023011877878289667,-0.009753039990365505
1782891073915920600,2.932920654296875,-0.005645312410593032,-0.035749450104776766,-0.0069799585478380315
1782891073925942800,2.94294287109375,-0.009537059152126312,-0.03435536539787427,0.004088036498613655
1782891073935964700,2.952964599609375,-0.0216588741004467,-0.02940125012183562,-0.013743169072456657
1782891073945986600,2.962986572265625,-0.021063830816745756,-0.011861319114919751,0.0013620821334421635
1782891073956008700,2.9730087890625,-0.027795184898376464,-0.020505174020677804,-0.00490337146949023
1782891073966030600,2.983030517578125,-0.0037070378243923186,-0.03254795064972713,-0.011765073932521044
1782891073976052500,2.993052490234375,-0.011939444118738174,-0.03130671841697767,-0.003288264423049986
1782891073986074600,3.00307470703125,-0.013733926320075989,-0.031792200378980486,-0.006417246631160378
1782891073996096500,3.013096435546875,-0.02136836672127247,-0.03182750915437937,0.00837345873285085
1782891074006118700,3.02311865234375,-0.031997897285223,-0.03464748021224513,0.0035333252253010867
1782891074016141600,3.0331416015625,-0.007006663891673088,-0.027668946436513214,-0.010575827615335582
1782891074026163500,3.04316357421875,-0.00940554172694683,-0.01450819862820208,-0.003979498090222478
1782891074036185900,3.053185791015625,-0.01973696612715721,-0.020506123868748543,-0.00857895470969379
1782891074046207700,3.063207763671875,-0.00971884545981884,-0.04269114073514938,0.004265110098570585
1782891074056229600,3.073229736328125,-0.019602526092529295,-0.046356714037992054,-0.007285846159234642
1782891074066251500,3.08325146484375,-0.021250293299555776,-0.04182904401309788,-0.0038856092616915703
1782891074076273700,3.093273681640625,-0.01376432145833969,-0.02420528891393915,-0.0020488222885876894
1782891074086295600,3.103295654296875,-0.004187514817714691,-0.02547969276392832,0.0003831540986895561
1782891074096317400,3.1133173828125,0.0047884033203125,-0.028617388001456856,0.005259564496017992
1782891074106339600,3.123339599609375,-0.024391513934731483,-0.041478641406539826,-0.002081555514410138
1782891074116361700,3.13336181640625,-0.002994505640864372,-0.02806660398459062,0.004967120888084173
1782891074126383900,3.1433837890625,-0.008977087181806565,-0.031113059008400886,-0.004172171118110418
1782891074136406000,3.153406005859375,-0.019000468546152113,-0.032290596621483564,-0.011871347318589687
1782891074146429000,3.163428955078125,-0.01675415092408657,-0.02943670502770692,-0.00732113666832447
1782891074156451000,3.173451171875,-0.02229366487264633,-0.02810383072244003,-0.011171820747107267
1782891074166473000,3.183472900390625,-0.026941198417544363,-0.023841752831172198,-0.0015737521227449178
1782891074176494800,3.193494873046875,-0.019465747970342635,-0.03797730048839003,-0.007178915186040103
1782891074186516700,3.203516845703125,-0.008844985234737396,-0.029068090911023317,-0.007753682866692543
1782891074196539000,3.213538818359375,-0.0025637130081653595,-0.02262514358302578,0.000825052647292614
1782891074206560800,3.223560791015625,-0.0119949736982584,-0.03295108809052035,-0.008800086647085845
1782891074216582700,3.233582763671875,-0.013195581659674644,-0.02977872339840978,-0.004912139297835528
1782891074226605000,3.24360498046875,-0.015436054062843322,-0.026890765138249843,-0.008796104591712355
1782891074236627000,3.253626953125,-0.01303892979323864,-0.027382567243184892,0.011010419640317558
1782891074246648800,3.26364892578125,-0.015132687202095985,-0.019610691132675856,-0.005782967315614223
1782891074256671000,3.2736708984375,-0.011242694026231764,-0.019766795009840278,-0.012303053266741335
1782891074266694000,3.28369384765625,-0.013636311164498328,-0.015852580708172172,-0.015191066325828432
1782891074276716000,3.293716064453125,-0.005261281529068946,-0.02911441427078098,-0.00009436375256627798
1782891074286738000,3.303738037109375,-0.020684476110339165,-0.019094375640992076,-0.014604717805236577
1782891074296759800,3.313759765625,-0.029663316857814787,-0.02575408925851807,-0.005312463727034628
1782891074306781700,3.32378173828125,-0.02053951468169689,-0.02978336304090917,-0.004590725323744118
1782891074316803800,3.333803955078125,-0.014111527460813521,-0.024134927091468125,0.005902684705145656
1782891074326826000,3.343825927734375,-0.02264145539700985,-0.029939740912709383,-0.019246625326946376
1782891074336848000,3.353847900390625,-0.016505729120969773,-0.024765607944130897,0.0013251476565375923
1782891074346870000,3.3638701171875,-0.012615735945105552,-0.02358922110851854,-0.005055310628190636
1782891074356892000,3.373891845703125,-0.01994914757311344,-0.015891013022419066,-0.008635982126556337
1782891074366913800,3.383913818359375,-0.026231004321575165,-0.030898174148704854,-0.003497486726939678
1782891074376936000,3.39393603515625,-0.021299977660179138,-0.03043112289253622,-0.00712400666102767
1782891074386957800,3.403957763671875,-0.011726678150892258,-0.027347568995039907,0.0034475466379895806
1782891074396979700,3.413979736328125,-0.01846212388575077,-0.020915910246036947,0.007053425642848015
1782891074407003000,3.4240029296875,-0.01906593499779701,-0.02928555132029578,-0.003780760647729039
1782891074417024800,3.434024658203125,-0.016375380739569664,-0.025463910672906785,-0.011906783958151935
1782891074427046700,3.444046630859375,-0.009489712879061698,-0.0157822371520102,0.00010813654959201812
1782891074437069000,3.454069091796875,-0.004404372438788414,-0.014069898542482405,-0.0019515359265729784
1782891074447091000,3.464091064453125,-0.012189034965634345,-0.030480843785777686,-0.017959106267057358
1782891074457112800,3.47411279296875,-0.016827216160297392,-0.027566874301526694,-0.009524345801025628
1782891074467135000,3.484135009765625,-0.008896423161029815,-0.033072979170829055,0.0006051262862980365
1782891074477156900,3.494156982421875,0.00022504092752933502,-0.027527985329553483,-0.0022713424654677507
1782891074487178800,3.5041787109375,-0.018033669340610504,-0.025101068709883836,-0.008926379907876253
1782891074497201000,3.514200927734375,-0.014442366850376129,-0.019805921443831174,-0.017060915318317712
1782891074507222800,3.524222900390625,-0.013999299257993697,-0.0402072697638534,0.0005423632483929395
1782891074517245000,3.534244873046875,-0.022229367464780807,-0.026541641173325477,-0.012963855263032018
1782891074527267000,3.54426708984375,-0.009661562314629554,-0.016004556399490683,-0.002117832404188812
1782891074537290000,3.5542900390625,-0.012953589597344398,-0.020322182136587798,0.0047733884142711755
1782891074547311900,3.564311767578125,-0.008017302238941192,-0.02632779749324545,0.0006883110577240585
1782891074557334000,3.574333984375,-0.023135376393795013,-0.03162468005865812,-0.014367986439913511
1782891074567356000,3.58435595703125,-0.008618190741539002,-0.020299203119799495,-0.010047492892295121
1782891074577377800,3.594377685546875,-0.02447393152117729,-0.03182562772454694,-0.017350545914657414
1782891074587400000,3.60439990234375,-0.008012041541934013,-0.03938963323803618,-0.0030435689469799397
1782891074597421800,3.614421875,-0.007861819416284561,-0.02200122126471251,-0.00795059367828071
1782891074607443700,3.624443603515625,-0.00801087249815464,-0.029991398034710435,-0.0012910261912271379
1782891074617465900,3.6344658203125,-0.021783377262949943,-0.025179559039883313,-0.0064582727612927555
1782891074627488000,3.644488037109375,-0.020890812337398527,-0.017222444289270788,-0.003073050769791007
1782891074637510000,3.654510009765625,-0.00817336958348751,-0.0385856964440085,-0.00033138737883418797
1782891074647532000,3.664531982421875,-0.012661328652501105,-0.022514851608965544,-0.006702164519764482
1782891074657554000,3.674553955078125,-0.024780220991373062,-0.02483746760394424,-0.010202756519243121
1782891074667576800,3.684576904296875,-0.010120411998033523,-0.02375792873892933,-0.003734400755353272
1782891074677599000,3.694598876953125,-0.00862169787287712,-0.019113098607771096,0.010097250318154692
1782891074687620900,3.704620849609375,-0.012965864557027817,-0.02002588433744386,0.004660466091707349
1782891074697642800,3.714642822265625,0.0031955811709165572,-0.020466321581322697,0.00940291137844324
1782891074707665000,3.724664794921875,-0.0003933832317590713,-0.030758656080160287,0.0048577422294765705
1782891074717686800,3.734686767578125,-0.006230418822169304,-0.02751865124562755,0.000837218009121716
1782891074727709000,3.744708984375,-0.022688801670074463,-0.020081834042072293,-0.017100808937288818
1782891074737731000,3.75473095703125,-0.0072796356141567225,-0.023864147326070815,-0.016389957254193722
1782891074747753000,3.7647529296875,-0.014763269367814063,-0.022859007137827573,-0.010925079444423317
1782891074757774800,3.77477490234375,-0.000699088180065155,-0.01565104852039367,-0.016656133909709752
1782891074767797000,3.784796875,-0.022099603605270385,-0.027056714555993674,0.003302512144111097
1782891074777819000,3.79481884765625,-0.03676525781750679,-0.014972436872776596,-0.00034347967542707917
1782891074787840800,3.8048408203125,-0.013572598278522491,-0.015328282839432357,0.015086436907574533
1782891074797864000,3.814864013671875,-0.010582184290885924,-0.025447452728450295,0.006459916729107499
1782891074807885800,3.8248857421875,-0.009534136542677879,-0.028321382463257758,0.004445179373212159
1782891074817907700,3.83490771484375,-0.021802081963419914,-0.022144776187557724,-0.012312222953885793
1782891074827929900,3.844929931640625,-0.02105857011973858,-0.02190353304389864,-0.0007145780101418495
1782891074837952000,3.854951904296875,-0.012232289585471153,-0.019252415746916083,-0.015483729129470884
1782891074847974000,3.864973876953125,-0.020168927803635595,-0.01676452618762851,0.00019614362660795448
1782891074857996000,3.87499609375,-0.018072247785329818,-0.01172339021526277,-0.005468165745399892
1782891074868018000,3.885017822265625,-0.016280688193440435,-0.019419643806293605,0.012724055157788097
1782891074878039800,3.895039794921875,-0.017483634242415426,-0.0256577527445741,0.008227876249700785
1782891074888061700,3.905061767578125,-0.011502806267142295,-0.028182375851366667,-0.0016304507460445164
1782891074898083000,3.9150830078125,-0.01913432405889034,-0.024820279007125644,-0.0040579336212947965
1782891074908105000,3.92510498046875,-0.012099018594622611,-0.03082576649961993,-0.008785510132461786
1782891074918126800,3.935126953125,-0.004468669846653938,-0.026316125321760774,-0.0017873218081891535
1782891074928149000,3.94514892578125,-0.01210427929162979,-0.02056874077618122,0.0054563657097518444
1782891074938171000,3.9551708984375,-0.021985037314891813,-0.022183299833349882,-0.0136617743993178
1782891074948192800,3.96519287109375,-0.012711597535014153,-0.0333287622964941,0.007202880583517253
1782891074958214700,3.975214599609375,-0.01840191813111305,-0.027412469191104172,0.0038398704238235947
1782891074968236800,3.98523681640625,-0.02843056019246578,-0.022506595237273722,0.00043882980868220324
1782891074978259000,3.995259033203125,-0.025142624562978742,-0.021458949347864836,-0.010810878480225801
1782891074988281900,4.00528173828125,-0.018711130210757255,-0.016649777234159408,-0.014476451783068478
1782891074998304000,4.015303955078125,-0.001803250029683113,-0.02472998864147812,-0.005236000957340002
1782891075008326000,4.025325927734375,-0.021408114209771154,-0.0224038289825432,-0.01304616325162351
1782891075018348000,4.03534814453125,-0.01766834315955639,-0.024162326555047183,-0.005871339718811213
1782891075028370000,4.045369873046875,-0.013784195202589035,-0.015862864640168846,-0.005270524281449616
1782891075038391800,4.055391845703125,-0.005556465083360672,-0.01742209504721686,-0.004692833991348743
1782891075048414000,4.0654140625,-0.008398410511016845,-0.026119287575408816,-0.01775112607218325
1782891075058435800,4.075435791015625,-0.014982465076446532,-0.02193418391048908,-0.008544796711765229
1782891075068457700,4.085457763671875,-0.0018126023799180982,-0.021400570224132387,-0.010388999806344508
1782891075078480000,4.09547998046875,-0.017678864553570747,-0.021027170334476975,-0.0036093861361965536
1782891075088502000,4.105501953125,-0.019777298137545585,-0.021603819444961845,-0.024497714255563914
1782891075098524000,4.11552392578125,-0.016790975803136824,-0.018309819400869308,0.004882949735969305
1782891075108545800,4.1255458984375,-0.007665420061349868,-0.017790837028063833,0.007086158868670463
1782891075118569000,4.13556884765625,-0.017093758141994476,-0.03196989503344521,-0.0174706286303699
1782891075128590300,4.14559033203125,-0.019941548788547515,-0.020709610551595686,-0.003065525050461292
1782891075138612500,4.155612548828125,-0.008724573725461959,-0.018068978116009382,-0.00872519477996975
1782891075148634400,4.16563427734375,-0.0018470891714096069,-0.020707582991290836,-0.012444069172628223
1782891075158656300,4.17565625,-0.015615502282977103,-0.013684168894216418,0.011284012417308985
1782891075168678400,4.185678466796875,-0.017115969973802565,-0.027800135068129745,-0.000153400463424623
1782891075178700500,4.195700439453125,-0.014575637841224669,-0.030439671525172886,-0.013534969681873918
1782891075188722400,4.205722412109375,-0.004852700728178024,-0.01816379852630198,-0.0023241320986300707
1782891075198744600,4.21574462890625,-0.008895254117250442,-0.009393285033572465,0.001694419360347092
1782891075208766500,4.225766357421875,-0.014582652103900908,-0.022856669050268827,-0.004388115423731505
1782891075218788400,4.235788330078125,-0.012638532298803328,-0.01981662550093606,-0.006791084912233054
1782891075228810200,4.245810302734375,-0.018782441881299017,-0.019286391081754117,-0.003170812055841088
1782891075238832400,4.255832275390625,-0.014891864183545113,-0.012167645117733626,-0.01629855264369398
1782891075248855300,4.265855224609375,-0.021774609434604644,-0.024072419781889766,-0.00905347688626498
1782891075258877400,4.27587744140625,-0.017435703447461127,-0.024785445155762136,-0.004179989098384976
1782891075268899300,4.2858994140625,-0.016841244685649872,-0.015235252527426928,-0.005428418256901204
1782891075278922200,4.295922119140625,-0.01788870791196823,-0.022559951126016674,0.004906622872501611
1782891075288944400,4.3059443359375,-0.007120061138272285,-0.016247918434999883,0.00521411791909486
1782891075298966500,4.315966552734375,-0.009517769929766655,-0.01580983754498884,-0.00872830005250871
1782891075308989400,4.325989501953125,-0.032115386185050006,-0.022024346411973237,-0.008974274170212447
1782891075319011300,4.33601123046875,-0.019241876086592672,-0.013125183304585515,-0.00700282796677202
1782891075329033500,4.346033447265625,-0.01026478890478611,-0.01057000066274777,0.0018094971073791383
1782891075339055400,4.356055419921875,-0.016991466811299323,-0.01244540261318907,0.00846581319142133
1782891075349077500,4.366077392578125,-0.013702362138032912,-0.017365688684862105,-0.013468297653831542
1782891075359099400,4.376099365234375,-0.0014338321954011917,-0.030227636209689077,-0.014468085813522338
1782891075369121300,4.386121337890625,-0.016399346137046814,-0.023327209171466527,-0.004399075209163129
1782891075379143400,4.396143310546875,-0.00921732567846775,-0.028635343783255666,-0.01164743890222162
1782891075389165300,4.406165283203125,-0.013259294545650481,-0.010295622434467076,-0.018978256714344024
1782891075399187200,4.416187255859375,-0.016696867778897284,-0.023311335748899726,-0.012358838574588298
1782891075409209600,4.426209716796875,-0.015801380243897437,-0.023409078768640755,-0.009314794703572988
1782891075419231500,4.4362314453125,-0.026273089897632596,-0.017152064200490712,-0.0051527431206777686
1782891075429253400,4.44625341796875,-0.02492752050757408,-0.006338098714035004,-0.004564531436562538
1782891075439276500,4.456276611328125,-0.025826515173912046,-0.015590897564683109,0.0042450171586126085
1782891075449298400,4.46629833984375,-0.01834697307348251,-0.02782201810637489,0.00016783084757626056
1782891075459320300,4.4763203125,-0.02313420735001564,-0.023069014893006532,-0.002666479262895882
1782891075469342500,4.486342529296875,-0.020887305206060407,-0.028636001370381563,-0.009502243567071855
1782891075479364400,4.4963642578125,-0.016554244437813757,-0.025901644503045825,-0.016605609298869967
1782891075489386200,4.50638623046875,-0.015654665249586103,-0.015972517293412238,-0.007840776628255844
1782891075499408400,4.516408447265625,-0.027179098826646802,-0.023098387117963283,0.00851071177907288
1782891075509430500,4.526430419921875,-0.008917465949058533,-0.012696418232191354,-0.011018785609863697
1782891075519452400,4.536452392578125,-0.007716857987642288,-0.023608345934096723,0.0037515345532447095
1782891075529474600,4.546474609375,-0.008168693408370018,-0.007039524981658905,0.008073270209878683
1782891075539496400,4.556496337890625,-0.01565875690281391,-0.008078603972122072,0.006058569386601448
1782891075549518300,4.566518310546875,-0.0017471359282732008,-0.015812595757655798,0.004538885538652539
1782891075559540500,4.57654052734375,-0.00563712910413742,-0.022303327750135212,-0.01081160913258791
1782891075569563400,4.5865634765625,-0.012668342915177344,-0.014360004062857479,-0.00333122678194195
1782891075579585300,4.596585205078125,-0.016113514932990073,-0.013018434994481503,0.005930193766579031
1782891075589607400,4.606607421875,-0.017607552883028982,-0.023694033189862965,0.00027808628901839253
1782891075599629300,4.61662939453125,-0.02478898881971836,-0.014445344258751719,-0.0047255306845530864
1782891075609651200,4.626651123046875,-0.007734978166222572,-0.014656941182818264,-0.021273235783725974
1782891075619673600,4.636673583984375,-0.01117839661836624,-0.027422753123100847,-0.015125928667746483
1782891075629695500,4.646695556640625,-0.02105681655406952,-0.018261669410206377,-0.01054367891140282
1782891075639717400,4.65671728515625,-0.015221534529328345,-0.01080419301111251,-0.0054787236720323556
1782891075649739500,4.666739501953125,-0.02629705529510975,-0.013131211186572908,0.010647212351113558
1782891075659761400,4.676761474609375,-0.01298047760426998,-0.017839060083962976,-0.013428221371769904
1782891075669783300,4.686783203125,-0.01402618726491928,-0.013559099476132541,-0.014319982579722999
1782891075679805400,4.696805419921875,-0.027196634483337402,0.0008540778123773634,0.001962239983677864
1782891075689828400,4.706828369140625,-0.013432897546887397,-0.021433778373990207,0.004125701627880334
1782891075699850200,4.716850341796875,-0.003708791390061378,-0.017768168538529423,-0.0029420813338831065
1782891075709872400,4.726872314453125,-0.019117957445979116,-0.01286375588942319,-0.005312865585833788
1782891075719894500,4.73689453125,-0.0007148702710866927,-0.005129837169125676,-0.004117956712841988
1782891075729916400,4.74691650390625,-0.02076514013111591,-0.01115024823611602,-0.018632767744921147
1782891075739938600,4.7569384765625,-0.014030278918147086,-0.027312771676294503,-0.006326426542550325
1782891075749960400,4.76696044921875,-0.023901100069284437,-0.01270726841976866,-0.003662175769358873
1782891075759982300,4.776982421875,-0.005050269126892089,-0.008152947849966586,0.0179722214769572
1782891075770004500,4.78700439453125,-0.01911912648975849,-0.026872425763960928,0.004949694829247892
1782891075780026400,4.7970263671875,-0.009393851289153099,-0.01235197044238448,-0.003314019918814301
1782891075790048300,4.80704833984375,-0.03213642897307872,-0.0015673771808855234,0.0006512669829651713
1782891075800070400,4.8170703125,-0.006698036333918571,-0.014646949511766432,-0.013052958318591117
1782891075810092500,4.827092529296875,-0.012379589101672172,-0.029144407550245523,-0.013965177792683242
1782891075820115200,4.837115234375,-0.016719664132595062,-0.02193977340105921,0.006830320944078266
1782891075830137600,4.8471376953125,-0.017767711880803106,-0.017585742910020054,0.002629033329337835
1782891075840159500,4.857159423828125,-0.006851765590906143,-0.017944566285051405,-0.013242562606558202
1782891075850181400,4.867181396484375,0.0006277765095233917,-0.022165344051551072,-0.002470116440579295
1782891075860203500,4.87720361328125,-0.029749241575598714,-0.009648191376402973,0.0017554653652012348
1782891075870225400,4.887225341796875,-0.018974165061116217,-0.01724156911484897,-0.021828093187510965
1782891075880247300,4.897247314453125,-0.021218144595623014,-0.016050459634140132,-0.001617262470908463
1782891075890269400,4.90726953125,-0.020316227319836615,-0.03266353985341266,0.004787307341769337
1782891075900291300,4.917291259765625,-0.02107318316698074,-0.032844632041361184,-0.009160919316112995
1782891075910313500,4.9273134765625,-0.010600888991355896,-0.02200801633168012,-0.006813698602840304
1782891075920335600,4.937335693359375,-0.011050970846414565,-0.01556154360603541,0.001999905112944543
1782891075930357500,4.947357421875,-0.017784663015604017,-0.03368897391101345,0.0026592458045110105
1782891075940379400,4.95737939453125,-0.021376550027728078,-0.017235687363333998,-0.019868118226155636
1782891075950402600,4.967402587890625,-0.01568798299729824,-0.008451254943106322,-0.0046094300242140885
1782891075960424400,4.977424560546875,-0.00805880329310894,-0.0029939211189746857,-0.000012969079427421092
1782891075970446300,4.9874462890625,-0.019583821392059324,-0.002616064249910414,-0.01260842942148447
1782891075980468500,4.997468505859375,-0.0011795651733875275,-0.00302736673085019,-0.011343743247911334
1782891075990490400,5.007490478515625,-0.014047814574837683,-0.018496793340332805,-0.01539283597562462
1782891076000512300,5.01751220703125,-0.010457096606492996,-0.02350462983129546,-0.01088087497651577
1782891076010534400,5.027534423828125,-0.013451017725467682,-0.011777750751003622,-0.004357720285467803
1782891076020556500,5.037556640625,-0.005216857865452766,-0.019599146825354546,-0.0015355024715885519
1782891076030578400,5.047578369140625,-0.004612462231516838,-0.02700483823828399,0.008159158395044505
1782891076040600300,5.057600341796875,-0.02406125906705856,-0.0100240572177805,0.019613120551779866
1782891076050622500,5.06762255859375,-0.006401683735847472,-0.011211787431314587,0.0021746771579608318
1782891076060644400,5.077644287109375,-0.013885317489504813,-0.0010483765417709946,-0.0075990037616342305
1782891076070666200,5.087666259765625,-0.01179272912442684,-0.01454506003987044,-0.012023651803471147
1782891076080689400,5.097689453125,-0.01777764875292778,-0.025713702449202538,0.0062699471149593585
1782891076090711300,5.107711181640625,-0.019876666858792302,-0.01552954103257507,-0.008358297696337103
1782891076100733400,5.1177333984375,-0.007754851910471916,-0.012554598608706146,0.0013944135004654527
1782891076110755300,5.12775537109375,-0.0074526540935039515,-0.014155439667776226,-0.005085486570745706
1782891076120777500,5.137777587890625,-0.020621932268142698,-0.01896844770638272,-0.0025006211766973136
1782891076130799600,5.147799560546875,-0.012846037569642066,-0.0035044644569978117,0.0027591259824112056
1782891076140821500,5.157821533203125,-0.021228081467747687,-0.021144768832158295,-0.020932642185129226
1782891076150843600,5.16784375,-0.024517770662903785,-0.02595184032032266,-0.013700900833308697
1782891076160865500,5.177865478515625,-0.018238836523890495,-0.01886880499050021,0.004410473386012017
1782891076170887400,5.187887451171875,-0.019583821392059324,-0.013627762531861662,-0.0047418242322281
1782891076180909600,5.19790966796875,-0.026615035203099248,-0.01583447879590094,0.008709668417274951
1782891076190931500,5.207931396484375,-0.005512041419744491,-0.004557170114014297,0.017448562929034232
1782891076200954400,5.217954345703125,-0.01090308680832386,-0.015529413168411702,0.0009240195097401738
1782891076210976500,5.2279765625,-0.014344167172908782,-0.023678853887040167,0.002493935707584023
1782891076220998400,5.237998291015625,-0.009406710770726204,-0.017711743909865615,-0.0016396204331889748
1782891076231020500,5.2480205078125,-0.02406885785162449,-0.01426881864806637,-0.005153619903512299
1782891076241042700,5.258042724609375,-0.003568506136536598,-0.009696651894319803,0.01260357058327645
1782891076251064600,5.268064697265625,-0.020778584134578705,-0.01874647551877424,0.0066752765128389
1782891076261086500,5.27808642578125,-0.017189619731903076,-0.017946465981192886,-0.004890000531263649
1782891076271108600,5.288108642578125,-0.017197218516469,-0.019525296137854455,-0.008358626489900052
1782891076281130500,5.298130615234375,-0.0248263982206583,-0.01714300411120057,-0.0015722177527844904
1782891076291152400,5.30815234375,-0.01913958475589752,-0.016138046586047856,0.001355469729565084
1782891076301174500,5.318174560546875,-0.01509936945438385,-0.021147618376370518,-0.010560995372384786
1782891076311196700,5.32819677734375,-0.025125088906288146,-0.01157669348726049,0.013819193450734018
1782891076321218600,5.338218505859375,-0.011656535524129867,-0.004747340657562017,0.005595554984733462
1782891076331241700,5.34824169921875,-0.006418050348758697,-0.027958832761179653,-0.010010412284918129
1782891076341263600,5.358263671875,-0.019585574957728384,-0.025690412905160335,-0.00668188891671598
1782891076351285500,5.368285400390625,-0.0019335984110832214,-0.01422877889862284,-0.002538176708109677
1782891076361307600,5.3783076171875,-0.012258593070507048,-0.012125778737384825,-0.011363726590014993
1782891076371329500,5.38832958984375,-0.0044768531531095505,-0.004268763360381126,0.0002322743859142065
1782891076381351400,5.398351318359375,-0.006122866794466972,-0.002196541929896921,-0.004489603036828339
1782891076391373600,5.40837353515625,-0.016153262421488762,-0.015996336560416966,-0.01818290508557111
1782891076401395500,5.4183955078125,-0.011364859101176262,-0.02031578892841935,-0.0008045943811535835
1782891076411417600,5.42841748046875,-0.005084171396493912,-0.01141527411416173,0.010933555011823772
1782891076421439700,5.438439697265625,-0.014963760375976562,-0.0077868910165503616,0.00906564224809408
1782891076431461600,5.448461669921875,-0.0076303487479686734,-0.015472330952621996,0.01675374906528741
1782891076441483500,5.4584833984375,-0.01256663610637188,-0.012684472066070884,-0.01016015948653221
1782891076451506700,5.468506591796875,0.003296703457832336,-0.022527692824229596,-0.001709507331624627
1782891076461528600,5.478528564453125,-0.0074836337536573405,-0.01802563216462731,-0.00419189873188734
1782891076471550500,5.488550537109375,-0.016015315255522727,-0.011553148214891552,0.00562288138307631
1782891076481572600,5.498572509765625,-0.00015606734454631804,-0.020121143139153717,0.026478257080912587
1782891076491594500,5.508594482421875,-0.020956278789043426,-0.014183843778353184,0.0016061930876225233
1782891076501616400,5.518616455078125,-0.02215513318479061,-0.007234663961268961,-0.011876900276541709
1782891076511638500,5.528638427734375,-0.03741933781206608,-0.019627021212968974,-0.013249905662797391
1782891076521660700,5.53866064453125,-0.015569325053691864,-0.012838493584003298,0.00042414369620382786
1782891076531682600,5.5486826171875,-0.008687748846411705,-0.004666932365112006,-0.00421133408471942
1782891076541704700,5.55870458984375,-0.008994622838497161,0.0019369228793308137,-0.0013450579334050416
1782891076551726600,5.5687265625,-0.01483224295079708,-0.02689708528118208,0.008802388202026485
1782891076561748500,5.57874853515625,-0.004508417335152626,-0.025532171869836747,-0.0029400355072692033
1782891076571770400,5.588770263671875,-0.015281155762076377,-0.007288129447866231,0.006204772924259304
1782891076581793500,5.59879345703125,-0.004960837277770042,-0.009345208108145743,-0.007672836182825267
1782891076591815400,5.6088154296875,-0.0003226560831069946,-0.007006554293818771,-0.01406304867658764
1782891076601837600,5.618837646484375,-0.02112520561516285,-0.01876437650164589,-0.013422668413817881
1782891076611859500,5.628859375,-0.01603518899977207,-0.010182407850958407,-0.002412869828008115
1782891076621881600,5.638881591796875,-0.012438625812530517,-0.011699388285167514,-0.01781929593756795
1782891076631903700,5.64890380859375,-0.005263035094738007,-0.024413762299157676,-0.010166479629464447
1782891076641925600,5.658925537109375,-0.010946925950050354,-0.009908321883622557,0.0004363455906510353
1782891076651947500,5.668947509765625,-0.009001052579283714,-0.0040092356413602825,0.006780965377017855
1782891076661969400,5.678969482421875,-0.012139935126900672,-0.0003464936164207756,-0.010667122627981007
1782891076671991600,5.688991455078125,-0.013038345271348952,-0.012865180661529302,-0.0003244827140122652
1782891076682013400,5.699013427734375,-0.015582769057154654,-0.02155882952576503,-0.007743198005296289
1782891076692035300,5.709035400390625,-0.02231938383579254,-0.0212548416105099,0.004286152886599302
1782891076702057700,5.7190576171875,-0.037734979632496835,-0.011498531950823962,-0.008656696121022104
1782891076712080400,5.729080322265625,-0.01813128449618816,-0.009257785553019494,-0.01319346276782453
1782891076722102500,5.7391025390625,-0.00810498052239418,-0.013083846647199242,0.004966938224993646
1782891076732124700,5.749124755859375,-0.011548983496427535,-0.02278676388552412,0.0009204393131658434
1782891076742146600,5.759146484375,-0.005562894824147224,-0.00867529122363776,-0.014075177505798637
1782891076752168700,5.769168701171875,-0.026364275312423704,-0.016342446584347633,-0.011663330591097473
1782891076762190600,5.779190673828125,-0.02816168012320995,-0.019066519519686697,-0.007608027318306267
1782891076772212500,5.78921240234375,-0.012451485294103622,-0.023683274333830922,-0.010936075762473046
1782891076782234400,5.799234375,-0.016641922721266744,-0.015261702142935245,-0.011242584428377448
1782891076792256500,5.809256591796875,-0.027718028008937835,-0.00871397926621139,-0.008867306664399803
1782891076802278400,5.8192783203125,-0.018741525349020956,0.005686941328924149,-0.0015617328913882374
1782891076812300500,5.829300537109375,-0.003629296413064003,-0.007685951392725109,0.003559080721065402
1782891076822322700,5.83932275390625,-0.004677344161272049,0.0025873313457705077,-0.005236000957340002
1782891076832345600,5.849345703125,-0.009770283386111259,-0.009383950949646532,-0.0170385573560372
1782891076842367700,5.85936767578125,-0.007226444122195244,-0.013014306808635592,-2.5572832673788067e-7
1782891076852389600,5.8693896484375,-0.004534720820188522,-0.007052274865377694,0.0021105989458039404
1782891076862411500,5.87941162109375,-0.016210545566678045,-0.016538845939282325,-0.009180208538472652
1782891076872433400,5.889433349609375,-0.019205051207542418,0.0024443792111240327,-0.008854337584972382
1782891076882455600,5.89945556640625,-0.013822189125418662,-0.00710584994982928,-0.005512954735197127
1782891076892477400,5.9094775390625,-0.0233972422003746,-0.01707291628336534,-0.0024259485052898523
1782891076902499300,5.919499267578125,-0.018450433447957038,-0.004328001000639051,-0.006288140358775854
1782891076912521700,5.929521728515625,-0.01052314758002758,-0.0018874211817979812,0.0005141965998336673
1782891076922543600,5.939543701171875,-0.010676292315125464,-0.011154686949215828,0.008437135086208582
1782891076932565500,5.9495654296875,-0.016662965509295462,-0.016169373306073247,0.007010645947046578
1782891076942587600,5.959587646484375,-0.015920038187503812,-0.010069375930540263,-0.013730601851828396
1782891076952609500,5.969609619140625,-0.00275017549097538,-0.012863828954659401,0.0022723653787747023
1782891076962632700,5.9796328125,-0.008732757031917572,-0.011945545065961778,0.0077582129113376135
1782891076972654600,5.989654541015625,-0.0060381111204624175,0.00028690891629084945,-0.002753901818022132
1782891076982676500,5.999676513671875,-0.013367431095242499,-0.023706929204054174,0.020795790997706353
1782891076992698400,6.009698486328125,-0.024140754044055936,-0.004803217296954244,0.0019875205554068087
1782891077002720500,6.019720458984375,-0.013372107270359992,-0.00453167034657672,0.004804916063696146
1782891077012742400,6.029742431640625,-0.0139729957729578,-0.0012833178088068962,-0.009647460724040866
1782891077022764500,6.0397646484375,-0.0046925417304039,-0.0060345674565061925,-0.016880992174148558
1782891077032786700,6.04978662109375,-0.0030500352203845977,-0.010126604276802391,0.009567454290390014
1782891077042808600,6.05980859375,0.0033837972193956375,-0.005204290644824505,-0.0024894787281751632
1782891077052830500,6.06983056640625,-0.013071078497171401,-0.008421882718149571,-0.0011943974163383245
1782891077062852600,6.0798525390625,-0.023844985967874526,-0.0057885750724934034,0.004009600967541336
1782891077072874500,6.08987451171875,-0.01591419296860695,-0.025490469886269417,0.004848645607568323
1782891077082897400,6.0998974609375,-0.011121697995066642,-0.016426782133243976,-0.007786964081786573
1782891077092919600,6.10991943359375,-0.021449030742049215,-0.014201123706717044,0.003055478580482304
1782891077102941400,6.11994140625,-0.011274842730164528,-0.006726696172822267,-0.004016797893308103
1782891077112963300,6.12996337890625,-0.01980886231958866,-0.0009587620295584201,-0.004245967006683349
1782891077122985700,6.13998583984375,-0.02145370691716671,-0.018221538329217583,-0.0037956294232979414
1782891077133007600,6.150007568359375,-0.012025953358411789,-0.0011326207591220736,0.007601524512283504
1782891077143029800,6.16002978515625,-0.004250643181800842,0.0008857881248928606,0.007718136629275977
1782891077153051600,6.1700517578125,-0.020114567267894744,-0.011998900954704732,0.0036838761445134875
1782891077163073500,6.180073486328125,-0.019513094243407247,-0.0172161058800295,-0.006549567773938178
1782891077173095700,6.190095703125,-0.02041442699730396,-0.018151888892799613,0.00987831033784896
1782891077183117600,6.20011767578125,-0.03552607141137123,-0.014176299792714417,0.0024174364052712916
1782891077193139500,6.210139404296875,-0.018318916022777555,-0.007243468322232365,-0.0185473910164088
1782891077203161600,6.22016162109375,-0.029242461097240446,-0.00044220907585695385,-0.008025522078014909
1782891077213184500,6.2301845703125,-0.010688567274808883,-0.009007317923288792,0.014668832550011574
1782891077223206400,6.240206298828125,-0.009938041168451308,-0.017843991987407208,-0.018782953337952494
1782891077233228800,6.250228759765625,-0.014877251136302947,-0.020393238078802823,-0.021219642432965338
1782891077243250700,6.260250732421875,-0.01173661502301693,-0.011423329556453973,0.0063955097233876585
1782891077253272600,6.2702724609375,-0.012188450443744659,-0.015813362942636012,0.011066789470054208
1782891077263294700,6.280294677734375,-0.019822890844941137,-0.006179528885148465,-0.014424027476087212
1782891077273316600,6.290316650390625,-0.004857961425185203,-0.01309679746031761,-0.010122896216064691
1782891077283338500,6.30033837890625,-0.00725099404156208,0.005805781935621052,0.001674362953007221
1782891077293360600,6.310360595703125,-0.013539280530810355,-0.012003997254930437,-0.012418971263989805
1782891077303382500,6.320382568359375,-0.009651625442504882,-0.011793003119062631,0.010885039694979786
1782891077313404700,6.33040478515625,-0.007554945424199104,-0.0037233131057582795,0.006588401946984231
1782891077323426800,6.3404267578125,-0.009200959065556525,-0.010166735357791185,-0.0019487229149788617
1782891077333449700,6.35044970703125,-0.0289613060683012,-0.008577219410333781,-0.017839790736325085
1782891077343471600,6.3604716796875,-0.02267535766661167,-0.003441993680037558,-0.00649374593347311
1782891077353493800,6.37049365234375,-0.009653963530063628,-0.011630268571712076,-0.011932101062498986
1782891077363515600,6.380515625,-0.008156418448686599,-0.015158186969533562,-0.005663944045826793
1782891077373537500,6.39053759765625,-0.0009749825119972228,-0.012163973589614033,0.010621676051057875
1782891077383559700,6.4005595703125,-0.011600421422719954,-0.013604071129020302,-0.0008945742195472121
1782891077393581600,6.41058154296875,-0.028359248521924018,-0.008435472852084786,-0.0021260522432625293
1782891077403603500,6.420603515625,-0.01698503707051277,0.006863145501445979,-0.009924158773571253
1782891077413625600,6.43062548828125,-0.011146247914433478,-0.01524708909569308,0.0033632293554022906
1782891077423647700,6.440647705078125,-0.014437690675258635,-0.009465984943602233,0.008373129939287901
1782891077433669600,6.450669677734375,-0.008754384341835975,-0.003713321434706449,-0.006097659287974238
1782891077443691800,6.46069189453125,-0.0127922615557909,-0.005536445208638907,0.008010214911028742
1782891077453714700,6.470714599609375,-0.019823475366830826,-0.009326320744585245,0.010132796555571257
1782891077463736600,6.480736572265625,-0.01308686058819294,-0.007086451129615306,-0.001387180042080581
1782891077473758700,6.4907587890625,-0.024604864424467087,-0.005306563709210604,-0.011853738596662878
1782891077483780600,6.500780517578125,-0.010239654463529587,-0.013959661367349326,-0.004192337123304605
1782891077493802500,6.510802490234375,-0.021911387556791305,-0.019727869505248963,0.00033624621704220767
1782891077503824600,6.52082470703125,-0.014882511833310127,-0.027814236658718437,-0.008226889869011938
1782891077513846500,6.530846435546875,-0.010689736318588257,-0.01590023750849068,-0.009828772107698022
1782891077523868700,6.54086865234375,-0.01607961266338825,0.0007145597438327968,0.008938326073996722
1782891077533890800,6.550890869140625,0.003977671459317207,-0.01399844074146822,0.00046860389243811364
1782891077543912700,6.56091259765625,-0.019067104041576386,-0.005747201882489025,0.009590762100741267
1782891077553934600,6.5709345703125,-0.005744096609950065,-0.0016857611298561096,0.005570676271803677
1782891077563956700,6.580956787109375,-0.01606733770370483,-0.014256598487310111,0.0020282544245943425
1782891077573978600,6.590978515625,-0.02668985400497913,-0.014302519988268612,-0.002652195009216666
1782891077584001500,6.60100146484375,-0.02369710192978382,-0.007026099244505166,-0.008728263519890606
1782891077594023700,6.611023681640625,-0.015014613780379294,-0.011040814778581261,-0.00509469279050827
1782891077604045600,6.621045654296875,-0.018456278666853905,-0.008124671603552997,-0.006557385754212736
1782891077614067500,6.6310673828125,-0.016209376522898673,-0.01463571573169902,-0.015363463750667869
1782891077624089600,6.641089599609375,-0.010222118806838989,0.006667001874838024,-0.0009146671595051884
1782891077634111700,6.65111181640625,-0.00858078134059906,-0.013433975259121506,0.005740114554576576
1782891077644133600,6.661133544921875,-0.013671382477879523,-0.014862327561806887,0.00022701368890702724
1782891077654155800,6.67115576171875,-0.005893149691820144,-0.011909249909874051,0.0030382351847365496
1782891077664177700,6.681177734375,-0.0018529343903064726,-0.0010643778285011648,-0.0162196787212044
1782891077674199600,6.691199462890625,-0.021155016231536865,0.003450012589711696,-0.006293035729601979
1782891077684221700,6.7012216796875,-0.013370353704690932,-0.016371891874540596,0.004096402468159795
1782891077694243600,6.71124365234375,-0.01845510962307453,-0.021418252011295408,-0.0059051323905587195
1782891077704265500,6.721265380859375,-0.013967735075950621,-0.010676420179288834,-0.012257131765782832
1782891077714288600,6.73128857421875,-0.009176409146189689,-0.0037098325696773827,-0.013474763927236198
1782891077724310500,6.741310546875,-0.004381576085090637,-0.01672861462403089,-0.007145232112146914
1782891077734332700,6.751332763671875,-0.005728314518928528,-0.023205445955321192,-0.011801643083244561
1782891077744354800,6.761354736328125,-0.01291384210884571,-0.008431490796711296,-0.009138305625505746
1782891077754376700,6.771376708984375,-0.0022901567637920377,-0.0025990400498732925,-0.012800846721045672
1782891077764398600,6.781398681640625,0.00009586158990859984,-0.021282880394905803,-0.017078377909772097
1782891077774420700,6.791420654296875,-0.02190028164088726,-0.010812138855550437,-0.0013490765213966369
1782891077784442600,6.801442626953125,-0.018307225584983825,-0.005667323313001543,-0.004047083433717489
1782891077794464500,6.811464599609375,-0.002745499315857887,-0.003964245722163469,-0.005524097183719277
1782891077804486400,6.821486328125,-0.014115619114041328,-0.015873934023454786,-0.005725172713771462
1782891077814508800,6.8315087890625,-0.015168343037366866,-0.005541249247919768,-0.007885894411616027
1782891077824530700,6.84153076171875,-0.019954992792010306,-0.008120123292598872,0.0005344722028821706
1782891077834552600,6.851552490234375,-0.013066402322053909,-0.009727777684945612,-0.015232676977850496
1782891077844575700,6.86157568359375,-0.012167407655715941,-0.002435227790288627,-0.008949030131101607
1782891077854597600,6.87159765625,-0.012470189994573593,-0.009714224083628506,0.008639160464331507
1782891077864619800,6.881619873046875,0.0014443535894155502,-0.016726166938617823,0.0045549233580008145
1782891077874641700,6.8916416015625,-0.0178594818174839,-0.014925894317310303,0.00011573533415794372
1782891077884663600,6.90166357421875,-0.015167173993587493,0.0030020678928121924,0.020354696166701613
1782891077894685400,6.911685546875,-0.01127250464260578,-0.014023264655470847,0.018457557308487593
1782891077904707600,6.92170751953125,-0.00992225907742977,-0.010651413602195679,-0.014043101867102085
1782891077914729500,6.9317294921875,-0.012017770051956176,-0.008704517318122088,-0.009119126001000405
1782891077924751600,6.941751708984375,-0.01845510962307453,-0.014153320775926112,0.01500350786447525
1782891077934773800,6.951773681640625,-0.01920680477321148,-0.01817055706065148,0.00772105923872441
1782891077944795600,6.961795654296875,-0.01637070456445217,-0.010316263363696634,-0.02401102671716362
1782891077954817500,6.971817626953125,-0.0030541268736124037,-0.009582560527976602,-0.0057035088712349535
1782891077964840700,6.9818408203125,-0.014881342789530754,-0.011536471074726431,-0.010734306112676858
1782891077974862600,6.991862548828125,-0.01877542761862278,0.005265373182296753,-0.0096105627797544
1782891077984884700,7.001884765625,-0.01457914497256279,0.0015360687271691858,-0.019594598514400423
1782891077994906600,7.01190673828125,-0.0070960957407951355,-0.0000380304554477334,-0.005154862012527883
1782891078004928500,7.021928466796875,-0.02429974399805069,-0.006987593865022063,-0.015521028932556509
1782891078014950400,7.031950439453125,-0.01127951890528202,-0.006368877444788814,0.0010085194554179907
1782891078024972800,7.041972900390625,-0.005742927566170692,-0.01704874995648861,-0.009206694686599076
1782891078034994700,7.05199462890625,-0.01741466065943241,-0.011209138816501945,-0.002022628401406109
1782891078045016600,7.0620166015625,-0.018758476483821868,-0.009174472917430102,0.009256379047222435
1782891078055038700,7.072038818359375,-0.01367021343410015,-0.019730773848388342,-0.004095927544124424
1782891078065060600,7.082060546875,-0.017259177836775778,-0.003646923401299864,-0.013566899190098047
1782891078075082500,7.09208251953125,-0.008732757031917572,0.005528499364200979,-0.010936148827709257
1782891078085105700,7.102105712890625,-0.020554712250828742,0.0026168497011996804,0.00122906687092036
1782891078095127600,7.11212744140625,-0.016513327905535696,-0.011129077583923935,-0.011898564119078218
1782891078105149400,7.1221494140625,-0.019954992792010306,-0.016069639258645473,0.0011281272470951079
1782891078115171600,7.132171630859375,-0.015313888987898826,-0.01312757619107142,0.0047439796566963194
1782891078125193500,7.142193359375,-0.00962298386991024,-0.006995941568259149,0.0005520443921908735
1782891078135215600,7.152215576171875,-0.004385667738318443,0.00008413461949676274,0.0017654022373259067
1782891078145237500,7.162237548828125,-0.009179331755638122,-0.000781030842475593,0.0035219635810703038
1782891078155259600,7.172259765625,-0.01741173804998398,0.0022163608752191065,-0.005668401025235653
1782891078165281500,7.182281494140625,-0.006486439409852027,0.009946863795723765,-0.009096366179920733
1782891078175303400,7.192303466796875,-0.011423895812034606,-0.0023690854852087793,-0.004073533049225807
1782891078185325300,7.2023251953125,-0.004086977052688599,-0.006080178430210799,-0.003619542204029858
1782891078195347500,7.212347412109375,-0.008422375908493995,0.002452964376378804,0.0005557707192376255
1782891078205369600,7.22236962890625,-0.02323299154937267,-0.01659665880743414,-0.000634023587219417
1782891078215392500,7.232392578125,-0.00886485897898674,-0.011749766765534877,-0.013080540445260703
1782891078225414400,7.242414306640625,-0.02651917361319065,-0.005899378503207117,-0.00849558727517724
1782891078235436500,7.2524365234375,-0.026968086424469948,-0.015751202692929653,-0.0066779799265787
1782891078245458700,7.262458740234375,-0.012450316250324249,0.00021767960498109457,-0.0060228404860943555
1782891078255480600,7.27248046875,-0.01709142005443573,-0.0013745580225251613,-0.005907543543353677
1782891078265502500,7.28250244140625,-0.013650924211740493,-0.011855747890658675,0.003633022740110755
1782891078275524600,7.292524658203125,-0.007667173627018928,-0.0023645554405637083,-0.0004176043575629592
1782891078285546500,7.30254638671875,-0.013799392771720886,-0.009359528894443064,0.0032795331273227928
1782891078295568400,7.312568359375,-0.027418168279528615,-0.015089907506294548,0.0077786346448585385
1782891078305590300,7.32259033203125,-0.011853519400954245,-0.015241426539886742,0.0042614933693781495
1782891078315612700,7.33261279296875,-0.0037730887979269025,-0.006912957726232707,-0.01688000579345971
1782891078325634600,7.342634521484375,-0.02023322521150112,-0.0071023245521821075,0.0016478768048807978
1782891078335656400,7.352656494140625,-0.0347515799075365,-0.0008417845863848924,-0.0023560616068542
1782891078345679600,7.3626796875,-0.015601473757624626,-0.02675376782035455,0.0065916168173775075
1782891078355701500,7.372701416015625,-0.008271569260954856,-0.01753050559144467,0.007621763582713902
1782891078365723600,7.3827236328125,-0.014406711015105246,-0.01760590891521424,-0.0055846317319199435
1782891078375745500,7.39274560546875,-0.013062895190715788,-0.013770915595907717,-0.01437865396440029
1782891078385767400,7.402767333984375,-0.011420388680696487,0.0021629684538580474,-0.004272526220045984
1782891078395789300,7.412789306640625,-0.018452771535515784,-0.009048380586039274,-0.004548712812922895
1782891078405811500,7.4228115234375,-0.005887888994812965,0.0007000745607540011,-0.008361658697202802
1782891078415833600,7.43283349609375,-0.010376432585716248,-0.007748878827411681,-0.007321976918540894
1782891078425855500,7.44285546875,-0.013070493975281714,-0.01299613183112815,-0.006610613778792321
1782891078435877600,7.452877685546875,-0.01920972738265991,-0.01086264520008117,0.0037641383064910766
1782891078445899500,7.4628994140625,-0.0073906947731971736,-0.01816051059067249,-0.0033757235107943415
1782891078455921400,7.47292138671875,-0.009628244566917419,-0.002145798123348504,-0.008183196857757867
1782891078465943600,7.482943603515625,-0.010367080235481262,-0.00693849402628839,-0.013327500943653285
1782891078475966500,7.492966552734375,-0.016648352462053297,-0.011105733240954577,-0.004620316744409501
1782891078485988600,7.502988525390625,-0.021138065096735954,-0.006199092102143913,-0.011989420740306376
1782891078496010500,7.513010498046875,-0.032359131813049315,-0.0036011845634318887,0.0102316538201645
1782891078506032400,7.523032470703125,-0.015902502530813215,-0.0021478987488895655,-0.016135982493124902
1782891078516054300,7.53305419921875,-0.014708324310183525,-0.0106410931375809,-0.005569580293260514
1782891078526076700,7.54307666015625,-0.02353285127878189,-0.019630071686580777,0.009348258581757545
1782891078536098600,7.5530986328125,-0.029064766442775725,-0.013381642283685505,0.0031843291245400905
1782891078546120400,7.563120361328125,0.0019049568384885787,-0.006176880270335823,-0.0028462562765926122
1782891078556142600,7.573142578125,-0.019345920982956885,-0.014863807132840155,-0.01001271383985877
1782891078566164500,7.58316455078125,-0.020540683725476263,-0.00800966692175716,0.0035061449574306605
1782891078576186400,7.593186279296875,-0.013512392523884772,-0.011415529842488467,-0.01412913618274033
1782891078586208500,7.60320849609375,-0.014263503152132033,-0.0012027268532663583,-0.008506766256317496
1782891078596231400,7.6132314453125,-0.006334463718533516,-0.009312767143268138,-0.00908818287346512
1782891078606253300,7.62325341796875,-0.00604103372991085,-0.015574823212716728,-0.0028591888234019277
1782891078616275500,7.633275390625,-0.017860650861263275,-0.003927640038821846,0.0041383053811267015
1782891078626297600,7.643297607421875,-0.014574468797445296,-0.00919173457948491,-0.006275901931710541
1782891078636319500,7.653319580078125,0.003684241470694542,-0.001550645241793245,-0.006333623468317091
1782891078646341600,7.663341552734375,-0.026840076130628585,-0.010849000267218798,-0.012142163616605103
1782891078656363500,7.673363525390625,-0.02698503755927086,-0.018927695570886135,-0.004446458014845848
1782891078666385400,7.683385498046875,-0.01815232728421688,-0.0030190007613040506,0.007827624885737896
1782891078676407600,7.693407470703125,-0.015014029258489608,-0.010395319949276744,0.00954790933970362
1782891078686429400,7.703429443359375,-0.023848493099212643,-0.014741623791586608,0.009467135721072554
1782891078696451300,7.713451416015625,-0.018013795596361157,-0.012607917964830994,0.0018876038448885082
1782891078706473500,7.723473388671875,-0.012630348992347716,-0.006362265040911734,0.013719203674979507
1782891078716495600,7.73349560546875,-0.014273440024256706,-0.004022679644823074,0.009585318740643561
1782891078726518300,7.743518310546875,-0.0002063362270593643,0.0022810966745018956,-0.017978139761090278
1782891078736540700,7.753540771484375,-0.0030541268736124037,-0.01465124209439382,-0.018655162239819764
1782891078746562600,7.7635625,0.00038870705664157865,-0.015127316907234489,0.007019340710155666
1782891078756584400,7.77358447265625,-0.022658406531810758,0.0010388415284454822,0.0006448372421786188
1782891078766606600,7.783606689453125,-0.014130816683173179,-0.0008514839964918791,-0.0003530146887525916
1782891078776628500,7.79362841796875,-0.02011339822411537,-0.0018518749443814158,0.008282309850677847
1782891078786650400,7.803650390625,-0.01652443382143974,-0.018592837593331933,0.005092866159603
1782891078796672500,7.813672607421875,-0.0012608137160539626,0.0006302059286274015,-0.003986658483371138
1782891078806694400,7.8236943359375,-0.013980594557523726,-0.0015867029358632861,-0.008978256225585938
1782891078816716500,7.833716552734375,-0.018172201028466225,-0.009497329929936677,-0.010417385650612414
1782891078826738700,7.84373876953125,-0.009044307199120522,-0.007432615952473133,0.006556034047342837
1782891078836760600,7.853760498046875,-0.011288871255517006,-0.015737630825303495,0.01234075492862612
1782891078846783500,7.863783447265625,-0.020861586242914197,-0.008931512740720063,-0.0065300228232517835
1782891078856805600,7.8738056640625,-0.019064765954017637,-0.005582348443288356,-0.007884506172128021
1782891078866827500,7.88382763671875,-0.011273673686385153,-0.004942022979445755,0.013739552343264221
1782891078876849400,7.893849365234375,-0.01156885724067688,-0.01393863684562966,0.0014352569675073028
1782891078886871600,7.90387158203125,-0.011715572234988212,-0.010495474121812731,-0.010013225296512246
1782891078896891600,7.9138916015625,-0.031015900510549543,-0.006626962125394493,-0.006432663396000861
1782891078906913500,7.92391357421875,-0.03386135306954384,-0.009456614327058195,0.0020407485799863933
1782891078916936400,7.9339365234375,-0.015004092386364937,0.004227828561794013,0.009858911517634987
1782891078926958600,7.94395849609375,-0.0021340894192457198,-0.006732760587427764,-0.007792151713557541
1782891078936980500,7.95398046875,-0.01739946309030056,0.0009071779727935791,-0.0020244184996932742
1782891078947002400,7.96400244140625,-0.001693359914422035,-0.017600191560480743,0.010406389332562684
1782891078957024500,7.9740244140625,-0.018300795844197273,-0.005898118127882481,0.003909793854877353
1782891078967046400,7.98404638671875,-0.014111527460813521,-0.008498656015098095,0.017026465059444308
1782891078977068500,7.994068603515625,-0.013508885392546653,-0.009625066229142248,-0.006245872119627892
1782891078987090700,8.004090576171874,-0.01799684446156025,-0.010158570317644625,-0.0011794555755332112
1782891078997112600,8.014112548828125,-0.008716974940896034,-0.017389307022467253,-0.019844810415804385
1782891079007134500,8.024134521484376,-0.020538345637917517,-0.012459632067941128,0.002902114649675786
1782891079017156600,8.034156494140625,-0.0115635965436697,-0.006863730023335665,0.003741159289702773
1782891079027178500,8.044178466796875,-0.016204115825891492,-0.008313362576067447,-0.00003543663956224918
1782891079037201400,8.054201416015625,-0.00767535693347454,-0.018009393415879458,-0.007516184316389262
1782891079047223600,8.0642236328125,-0.014265841239690779,-0.01819830358410254,0.0022401801422238347
1782891079057245400,8.074245361328124,-0.010520224970579146,-0.007696399721503257,0.000053228024579584596
1782891079067267300,8.084267333984375,-0.016050386568903924,-0.009292455007601529,0.001990662360563874
1782891079077289500,8.09428955078125,-0.026071429845690726,-0.009119454794563352,0.0014521715696901082
1782891079087311600,8.1043115234375,-0.012901567149162291,-0.008742821768205612,-0.003544029282405972
1782891079097333500,8.11433349609375,0.0020674539238214494,-0.004535195744223892,-0.0071129372777417295
1782891079107355600,8.124355712890624,-0.01139759232699871,-0.0069783693789504464,0.0017580226484686136
1782891079117377500,8.13437744140625,-0.019773791006207464,-0.009766648390609771,0.0032375936817377804
1782891079127399400,8.1443994140625,-0.005703180077672005,-0.011585753576550633,0.013097491580061614
1782891079137422300,8.15442236328125,-0.0013666121780872343,-0.02151703621065244,-0.0028017960803583264
1782891079147444200,8.1644443359375,-0.006752396869659423,-0.003933832317590713,0.013645042460225522
1782891079157466000,8.174466064453124,-0.019915829825401306,-0.021157409118022767,0.004199753244780004
1782891079167489300,8.1844892578125,-0.021266075390577316,-0.014640665901452302,0.006997494204528629
1782891079177511200,8.19451123046875,-0.011537293058633803,-0.017998305766284466,-0.00500591852851212
1782891079187533000,8.204532958984375,-0.012737316498160362,-0.0018738493141718209,0.003499715216644108
1782891079197555200,8.21455517578125,-0.00016834230422973633,-0.006208024327270687,0.013662030127644538
1782891079207577300,8.224577392578125,-0.015134440767765045,-0.013401442962698637,-0.004666968897730112
1782891079217599200,8.23459912109375,-0.018279753056168555,-0.010577142789587378,-0.015442447271011768
1782891079227621400,8.244621337890624,-0.01962766053378582,-0.004395823806151748,-0.012306012408807873
1782891079237643300,8.254643310546875,-0.022173837885260582,0.007050795294344425,0.007350399295426905
1782891079247665200,8.2646650390625,-0.012597615766525268,-0.01676171317603439,-0.00858739374447614
1782891079257687300,8.274687255859375,-0.021581132689118383,-0.0030500534866936503,0.0031335853179916737
1782891079267709200,8.284709228515625,-0.005720715734362602,0.0007734320579096674,0.003734583418443799
1782891079277732000,8.294732177734375,-0.0144043729275465,-0.014514098646026104,0.0020910174624994395
1782891079287754200,8.304754150390625,-0.0018336451679468154,-0.001430891319643706,0.003969013228826225
1782891079297776000,8.314776123046874,-0.001983867293596268,-0.00485173261379823,0.012790763718448579
1782891079307798300,8.32479833984375,-0.023980595046281812,0.0012059965225867926,-0.011951572947949171
1782891079317821200,8.3348212890625,-0.002429272973537445,-0.010526362450420856,0.0017345687076449393
1782891079327843000,8.344843017578125,-0.024276363122463226,-0.01523580051669851,0.005230484532006085
1782891079337865500,8.354865478515626,-0.020533669462800025,-0.0004849887716583907,-0.0014986410599201916
1782891079347887400,8.364887451171874,-0.0155938749730587,-0.001978679661825299,-0.014167605029605328
1782891079357909200,8.3749091796875,-0.008411854514479636,-0.009660575933940709,-0.011125606985203922
1782891079367931400,8.384931396484374,-0.012604630029201506,-0.006424699285253882,-0.009203662479296326
1782891079377953300,8.394953369140625,-0.014702479091286658,-0.016089092877786607,0.004201652940921485
1782891079387975200,8.40497509765625,-0.015000585255026816,-0.0014092457434162497,0.0017100187882781027
1782891079397997000,8.4149970703125,-0.00587502951323986,-0.005112538974452763,0.012138145028613507
1782891079408019200,8.425019287109375,-0.012014262920618057,-0.009080401425808668,-0.015182115834392607
1782891079418041300,8.435041259765624,-0.010819500178098677,-0.01742560217855498,-0.005197349447384476
1782891079428063200,8.445063232421875,-0.023091537252068518,-0.010548081091884523,0.004568769220262766
1782891079438085400,8.45508544921875,-0.005136193844676017,-0.016982315390463916,-0.0046028176203370096
1782891079448108300,8.4651083984375,-0.021896189987659454,-0.0004547580301761627,-0.01027074372153729
1782891079458130400,8.47513037109375,-0.024139585000276565,-0.012610091655608266,-0.002281827326864004
1782891079468152300,8.48515234375,-0.002747252881526947,-0.017157544093206523,0.011071356047317385
1782891079478174200,8.49517431640625,-0.010978490132093429,-0.023287279019877313,-0.008032572873309255
1782891079488196000,8.505196044921876,-0.011430325552821159,-0.009260671629849821,-0.0034202202396467324
1782891079498218200,8.51521826171875,-0.02400339139997959,-0.0009385960243642329,-0.00016180296558886766
1782891079508240100,8.525240234375,-0.020266542959213256,0.0007543254986405372,0.008802863126061856
1782891079518262300,8.53526220703125,-0.012787000858783721,-0.01500681406641379,0.005745229121111333
1782891079528284400,8.545284423828125,-0.013830372431874275,-0.0027456819789484143,-0.0019225290277972817
1782891079538306300,8.555306396484376,-0.0054500820994377135,-0.002015267078857869,-0.008704480785503984
1782891079548328200,8.565328125,-0.016974515676498412,-0.007375807731319219,-0.004111709635145962
1782891079558350300,8.575350341796875,-0.022512276059389113,-0.014019008605461568,-0.004550283715501428
1782891079568373200,8.585373291015625,-0.021613281393051145,-0.003220606014318764,0.007022482515312731
1782891079578395400,8.5953955078125,-0.029093408015370366,-0.010013316628057508,0.004653890220448375
1782891079588417300,8.605417236328124,-0.025052023670077323,0.003167231859266758,0.008940481498464941
1782891079598439200,8.615439208984375,-0.02924187657535076,0.0017486885645426808,-0.010408106365613639
1782891079608461000,8.6254609375,-0.016072598400712013,-0.007452836756594479,0.009585063012316822
1782891079618483200,8.635483154296875,-0.0008124854266643523,-0.0038778826129622756,0.008825732544995845
1782891079628505300,8.64550537109375,-0.01353343531191349,-0.006287902896758168,0.0029334596360102295
1782891079638527200,8.65552734375,-0.009047229808568953,-0.016557367976661772,0.008561930509656666
1782891079648549400,8.66554931640625,-0.013236498191952705,-0.013066858979780226,0.007769830283895134
1782891079658571300,8.6755712890625,-0.011588730984926222,0.0026027481106109915,-0.0031237215111032126
1782891079668593200,8.68559326171875,-0.01518120251893997,-0.002888597580976784,0.006733692169189453
1782891079678615300,8.695615234375,-0.0015641805768013,0.002711377850547433,-0.00009765168819576501
1782891079688638200,8.70563818359375,-0.00350830038189888,-0.007222279403731226,-0.0029485476072877645
1782891079698660000,8.71566015625,-0.015026888740062713,-0.0022980843419209123,-0.021023462273739277
1782891079708682200,8.72568212890625,-0.02700315773785114,-0.009785298292152583,0.00031553222257643936
1782891079718704000,8.7357041015625,-0.03658464055359363,-0.00781023535951972,-0.01522858532462269
1782891079728726300,8.745726318359376,-0.01653670878112316,-0.006268558875471353,0.004309679892659187
1782891079738748400,8.75574853515625,-0.016233926442265508,-0.003734071961790323,0.005005187876150011
1782891079748770300,8.765770263671875,-0.019673837763071057,-0.0006091631405986845,-0.015162680481560527
1782891079758792200,8.775792236328124,-0.02520633744895458,-0.00010336904292926192,-0.01081438561156392
1782891079768814300,8.785814453125,-0.011437339815497398,-0.0023415581574663517,-0.005639467191696166
1782891079778836200,8.795836181640626,-0.018016718205809593,-0.01999061209466308,0.009969276556931436
1782891079788858000,8.805858154296875,-0.027438626545667647,-0.014165760132391006,-0.005095934899523854
1782891079798880300,8.81588037109375,-0.01037935519516468,-0.012859846899285913,-0.013827742083370684
1782891079808902100,8.825902099609374,-0.016515665993094442,0.010002831766661256,-0.006619600802846253
1782891079818925000,8.835925048828125,-0.023400164809823036,-0.00989093235740438,0.00009640957918018102
1782891079828947200,8.845947265625,-0.01831131723821163,-0.021962021765485406,0.0018037249537184833
1782891079838969300,8.85596923828125,-0.010082418075203894,-0.0157866027998738,-0.003743022453226149
1782891079848991200,8.8659912109375,-0.014720014747977257,-0.010878883948829025,0.0007642258381471037
1782891079859013400,8.876013427734375,-0.019058336213231084,-0.007026062711887061,0.006310096462257206
1782891079869035300,8.88603515625,-0.004542904126644134,-0.008904843929503112,-0.0033508082652464505
1782891079879057200,8.89605712890625,-0.024293898779153823,-0.006569989507459103,0.0018737945152446627
1782891079889079300,8.906079345703125,-0.003642740416526794,-0.01802561389831826,0.0142173624554649
1782891079899101200,8.91610107421875,-0.006037526598572731,-0.00479393801195547,0.006967902783863246
1782891079909123000,8.926123046875,-0.008133037573099135,-0.006302826471254229,-0.013559373470768332
1782891079919145500,8.9361455078125,-0.021455460482835767,-0.005030395382642746,-0.00944949046652764
1782891079929167400,8.94616748046875,-0.017122399714589117,-0.004281513244099915,0.0015195377174764871
1782891079939190300,8.956190185546875,-0.02550093648135662,0.006446929383371025,0.0055622737696394324
1782891079949212400,8.96621240234375,-0.018464461973309514,-0.006680080552119761,0.010395721808075905
1782891079959234300,8.976234375,-0.021608020696043968,-0.00561646990859881,-0.0019045915123075245
1782891079969256200,8.986256103515625,-0.010534253495931624,-0.011334244767203926,-0.002952602727897465
1782891079979278300,8.9962783203125,-0.015323825860023498,-0.006119250065274536,-0.008542860483005642
1782891079989300200,9.00630029296875,-0.021760580909252165,-0.007882533410750328,-0.00499572592806071
1782891079999322000,9.016322021484376,-0.015621347501873968,-0.015117690562363712,-0.011497764765843748
1782891080009344300,9.02634423828125,-0.015019874477386473,-0.011425064855813979,0.0012835004718974232
1782891080019366100,9.0363662109375,-0.021755320212244987,-0.005273099831026047,0.004379420660622418
1782891080029388300,9.04638818359375,-0.021010639324784277,-0.006933087198808789,-0.004309643360041081
1782891080039410400,9.056410400390625,-0.005748772785067558,-0.016874270172417164,-0.008785254404135048
1782891080049432300,9.066432373046876,-0.010241992551088333,0.00026800328642129895,0.026453049574419855
1782891080059454200,9.0764541015625,-0.01054185228049755,-0.003865644185896963,0.003884805544093251
1782891080069477400,9.086477294921876,-0.02116612214744091,-0.012964257121831179,-0.015105689597316086
1782891080079499300,9.096499267578125,-0.021317513316869735,-0.008654394566081464,0.009759798524715006
1782891080089521200,9.106521240234375,-0.010243161594867706,0.00048210269482806324,0.0023101035732775925
1782891080099543300,9.116543212890624,-0.02131634427309036,-0.0029824864095076916,0.006275682736001908
1782891080109565200,9.126565185546875,-0.013978840991854667,-0.005736187298130244,-0.012602255409024656
1782891080119587000,9.136587158203126,-0.017571312525868413,0.008300886686984449,-0.001276559274457395
1782891080129609500,9.146609375,-0.016682839253544808,-0.00697623222079128,0.003166428141668439
1782891080139630800,9.156630859375,-0.018033084818720818,-0.010565708080120384,-0.0017418752312660217
1782891080149653000,9.166653076171874,-0.01758241844177246,-0.011215897350851446,0.01259067456908524
1782891080159675000,9.1766748046875,-0.014443535894155502,-0.0037742761080153285,0.009472286820225417
1782891080169696800,9.18669677734375,-0.014891279661655425,-0.0014056107479147612,-0.008466251582838594
1782891080179719000,9.196718994140625,-0.013090952241420746,-0.017432744305394588,0.01625694199167192
1782891080189741800,9.206741943359376,-0.021019991675019264,-0.01435266100661829,-0.002283763555623591
1782891080199763700,9.216763671875,-0.018179215291142463,0.005543642134405672,0.024442257741279897
1782891080209785900,9.226785888671875,0.0008265139520168304,-0.008928261337708682,0.0031781185794621703
1782891080219807700,9.236807861328124,-0.023109657430648804,0.0000010594459250569344,-0.015748773273825643
1782891080229830000,9.246829833984375,-0.007997428494691849,-0.006973090415634214,0.0006535685379058122
1782891080239852000,9.25685205078125,0.0012824410259723662,0.0016087869035080074,-0.002679777135886252
1782891080249874000,9.2668740234375,-0.024605448946356773,-0.009633413932379334,0.0020721666315570474
1782891080259895800,9.276895751953125,-0.033438159221410746,-0.0004414966898038983,-0.0022562179615721106
1782891080269918000,9.28691796875,-0.020569909819960593,-0.011869246693048625,0.00318385420050472
1782891080279939800,9.29693994140625,-0.01383271051943302,-0.016422873143106698,0.00698602296244353
1782891080289961700,9.306961669921876,0.0017319383591413496,-0.0006976816742680967,0.010413476660475134
1782891080299984000,9.31698388671875,-0.004399111741781234,0.0017346783054992556,-0.003215893306583166
1782891080310006800,9.3270068359375,-0.019362872117757796,-0.01441639215890318,-0.012036145958863199
1782891080320028700,9.337028564453124,-0.010088263294100761,-0.008486837713140993,-0.012757263307645917
1782891080330051000,9.347051025390625,-0.015174188256263732,-0.004663772293645888,-0.012055179452896117
1782891080340073000,9.357072998046876,-0.010984335350990295,-0.008355630815215408,0.006829042302444577
1782891080350094800,9.3670947265625,-0.019958499923348427,-0.01000913364328444,-0.012043525547720492
1782891080360117000,9.377116943359376,-0.008885901767015456,-0.011429741030931473,0.016619637824222443
1782891080370139000,9.387138916015624,-0.019660978281497953,-0.00378636840460822,0.004218384880013764
1782891080380160800,9.397160888671875,-0.020412088909745215,0.0009268690539523959,-0.004046060520410537
1782891080390183000,9.407182861328126,-0.006945289093255996,0.0008821348630823194,-0.006539119445160031
1782891080400204800,9.417204833984375,0.00398059406876564,0.0005261244996450841,0.0016613573409616947
1782891080410227000,9.42722705078125,-0.014423077628016472,-0.006678016459196806,0.0029900121288374062
1782891080420249000,9.4372490234375,-0.03552490236759186,-0.00823635181710124,0.005265227051824331
1782891080430271000,9.44727099609375,-0.0102390699416399,-0.01653433416094631,-0.0038406741414219138
1782891080440294000,9.4572939453125,-0.0253536369651556,-0.0022199593381024897,-0.006608019962906837
1782891080450316000,9.46731591796875,-0.022962357914447784,0.0018295900473371148,0.004229417730681598
1782891080460338000,9.477337890625,-0.02175999638736248,-0.002359915798064321,-0.004676503911055624
1782891080470359800,9.48735986328125,-0.025197569620609282,-0.02207775709964335,-0.0005891615321859717
1782891080480382000,9.4973818359375,-0.031181904727220534,-0.007464143601898104,0.0018211510125547645
1782891080490403800,9.50740380859375,-0.02609481072127819,-0.005545103439129889,0.009959887674078344
1782891080500425700,9.51742578125,-0.031034605211019514,-0.009047759531531483,-0.0050044572237879035
1782891080510447900,9.52744775390625,-0.011581716722249984,0.009719448248017579,-0.006375161055102944
1782891080520470000,9.537469970703125,0.002335164949297905,-0.004500179229769856,-0.0013328925715759396
1782891080530492000,9.547491943359375,-0.01637070456445217,-0.00517152088638395,0.013494016616977751
1782891080540514000,9.55751416015625,-0.010984919872879981,-0.0035253428482450544,0.007036547573283315
1782891080550536000,9.567535888671875,-0.022208909198641776,0.004302501233201474,0.002687339387834072
1782891080560558800,9.577558837890624,-0.009191022193431854,0.004726644929405301,-0.007078633149340748
1782891080570581000,9.5875810546875,-0.017271452796459197,0.007029259315971285,-0.007335055595822632
1782891080580603000,9.597602783203126,-0.010838789400458335,-0.0017340572509914635,0.015237718479149042
1782891080590624800,9.607624755859375,-0.015773907715082167,0.0034151970046572386,0.011246420353278518
1782891080600647000,9.61764697265625,0.005176525855064392,-0.006370283950585871,0.00016684446688741445
1782891080610668800,9.627668701171874,-0.012636194211244582,-0.009092183195147662,0.003050692807510495
1782891080620691000,9.63769091796875,-0.028203765699267386,-0.007734795503132045,-0.012262355930171906
1782891080630713000,9.647713134765626,-0.0011187748968601225,-0.007630805405694991,-0.017120500018447636
1782891080640735000,9.65773486328125,-0.016828969725966453,-0.020582276111189273,-0.0011162906788289547
1782891080650756900,9.6677568359375,-0.0250660521954298,-0.017507289112638682,-0.01048844159282744
1782891080660778800,9.67777880859375,-0.014742811101675033,0.005240421404130757,-0.014437215751223266
1782891080670801000,9.68780078125,-0.012951836031675337,-0.009281367358006536,0.011455861852876842
1782891080680823800,9.69782373046875,-0.02596972303688526,-0.018559318916220216,-0.008728884574398398
1782891080690846000,9.707845947265625,-0.009961422044038772,-0.008854136655572801,-0.00903079013042152
1782891080700867800,9.717867919921876,-0.00980593922138214,0.0006164513979107141,0.01705565462131053
1782891080710889700,9.7278896484375,-0.01399871473610401,0.009919519131071865,-0.004024177482165396
1782891080720912000,9.737911865234375,-0.0011310498565435408,0.006785933813080191,0.0033834684258326887
1782891080730934000,9.74793408203125,-0.011902034717798233,0.006114281629212201,0.0014261238129809498
1782891080740956000,9.757955810546875,-0.024321371307969093,-0.00680496730711311,0.011874781384691595
1782891080750978000,9.76797802734375,-0.024916999113559723,-0.009471136042755096,0.00974113035686314
1782891080761000000,9.778,-0.020279986962676046,0.004507211758755147,-0.002542122230865061
1782891080771021800,9.788021728515625,-0.008605331259965897,-0.00427203302970156,0.006906345322355628
1782891080781043700,9.798043701171874,-0.013549801924824714,0.00032694866573438047,-0.0012394786670804022
1782891080791065900,9.80806591796875,-0.018786533534526823,-0.004908230307698249,-0.007297463531792164
1782891080801087700,9.818087646484376,-0.004569207611680031,-0.006204279733914881,0.006612623072788119
1782891080811111000,9.82811083984375,-0.0163911628305912,-0.0027868907721713184,0.006867328486219048
1782891080821132800,9.8381328125,-0.02238075863420963,-0.004746518673654645,-0.005981412497162819
1782891080831155000,9.848155029296874,-0.017597031489014623,-0.0017412359104491768,0.0033203400617465373
1782891080841177000,9.858177001953125,-0.020586860954761504,-0.008497377373464406,0.01192665770240128
1782891080851199000,9.868198974609374,-0.02238309672176838,-0.007160247018188238,-0.0007636047836393117
1782891080861220900,9.878220947265625,-0.022086159601807594,-0.00004776639817282557,-0.017537958245538172
1782891080871242800,9.88824267578125,-0.01206336275935173,-0.0029780294300988316,-0.00981876217033714
1782891080881265000,9.898264892578124,-0.01011924295425415,-0.0013050364502705633,-0.007436798937246203
1782891080891286800,9.908286865234375,-0.013709376400709152,-0.0061522390194237225,-0.021713526897132397
1782891080901308700,9.91830859375,-0.026274843463301657,-0.0017603059371002017,0.0013473594883456825
1782891080911330800,9.928330810546875,-0.01564648194313049,-0.00913233254244551,-0.0037357159296050667
1782891080921353000,9.93835302734375,-0.014154197558760642,-0.017441968791466204,-0.015550985679402947
1782891080931375900,9.9483759765625,-0.011015315011143684,-0.012350454338733106,-0.007564516970142722
1782891080941398000,9.95839794921875,-0.009518938973546028,0.006322243557777256,-0.002649783856421709
1782891080951420000,9.968419921875,-0.016096563798189162,0.0045043074156157666,-0.010947729667648672
1782891080961442000,9.978442138671875,-0.024024434188008308,-0.0036826888344250615,-0.00718929044958204
1782891080971464000,9.9884638671875,-0.007864742025732993,-0.0004129464487545192,0.0021418708669021726
1782891080981485800,9.99848583984375,-0.007864157503843307,0.0008839980266056954,-0.004075615408457816
1782891080991507700,10.0085078125,-0.01594458810687065,-0.008542422091588377,-0.003927950566075742
1782891081001529900,10.01852978515625,-0.011153262177109718,0.006936685661692172,0.007782470569759607
1782891081011551700,10.0285517578125,-0.00367255103290081,-0.010346366241015493,-0.0103126466345042
1782891081021574000,10.038573974609376,-0.02058452286720276,-0.0051672465700656174,0.00132715695053339
1782891081031596000,10.048595947265625,-0.004425999748706817,-0.0008885280712507664,-0.003173259741254151
1782891081041618000,10.058617919921875,-0.0183387897670269,-0.00450480060596019,0.0009604790626093745
1782891081051641000,10.06864111328125,-0.026122867771983145,-0.022169874096196144,0.00006696428898721933
1782891081061663000,10.0786630859375,-0.01729658723771572,-0.006134484167024493,-0.002828684087283909
1782891081071684900,10.088684814453124,-0.002336333993077278,-0.0012134674429893494,-0.011338299887813628
1782891081081706800,10.098706787109375,-0.019702479335665702,0.002942099600192159,0.002122033655270934
1782891081091729000,10.10872900390625,-0.022102526214718816,-0.011487955757882445,0.00991677918471396
1782891081101750800,10.118750732421875,-0.021057401075959204,-0.00008977890899404883,-0.008833842786215245
1782891081111772700,10.128772705078125,-0.03946516442596912,0.009910294645000248,-0.01282006287816912
1782891081121794800,10.138794921875,-0.014172317737340926,-0.002751892524026334,-0.01843114422559738
1782891081131817000,10.14881689453125,-0.00833762023448944,-0.009319269949290901,-0.005231324782222509
1782891081141838300,10.15883837890625,-0.022401801422238347,-0.015350878263730555,0.016844532621279357
1782891081151860200,10.168860107421875,-0.022404139509797093,-0.0004002148313447833,-0.00112962508443743
1782891081161882400,10.17888232421875,-0.0019067104041576384,0.004776384088955819,-0.007999656984396279
1782891081171904300,10.188904296875,-0.0206131644397974,-0.012389982631523161,0.004103891654871404
1782891081181927200,10.19892724609375,-0.003249357184767723,-0.003806589208729565,-0.004759798280335963
1782891081191949300,10.20894921875,-0.008329436928033828,-0.006026603345759212,0.008401113924756646
1782891081201971200,10.21897119140625,-0.008777180695533751,-0.004358542269375175,-0.006364822324179112
1782891081211993300,10.228993408203126,-0.009070026162266731,-0.006498860500007867,0.0005447013359516858
1782891081222015500,10.239015380859374,-0.008473229312896728,-0.0049573849453590805,0.014723558411933482
1782891081232037400,10.249037353515625,-0.005177694898843765,0.0012909896586090325,0.01600676662288606
1782891081242059300,10.259059326171876,-0.00636953503191471,-0.010181604133360087,0.012662461163662373
1782891081252081400,10.269081298828125,-0.0166962832570076,0.0027529154373332858,0.003971387849003076
1782891081262103300,10.279103271484376,-0.0030775077491998672,-0.0015470833115279674,0.0021549130115658044
1782891081272125200,10.289125244140624,-0.022084406036138534,0.0026923443565145134,-0.0022377324568107725
1782891081282147300,10.299147216796875,-0.01295826577246189,-0.007508530732896179,0.0029818288223817943
1782891081292169200,10.309169189453126,-0.0039823476344347,-0.01933771941019222,0.0041163127450272435
1782891081302192000,10.319192138671875,-0.01550502764582634,-0.011708503173384815,0.012018866030499339
1782891081312214300,10.32921435546875,-0.026575287714600562,-0.00596583133554086,0.00038370208796113727
1782891081322236400,10.339236328125,-0.01983633484840393,-0.02068882349189371,-0.0004963686821982265
1782891081332258300,10.34925830078125,-0.01594634167253971,-0.017580043821595608,0.014288235734589398
1782891081342280400,10.359280517578124,-0.02058569191098213,-0.0081500069742091,-0.0021894728682935235
1782891081352302300,10.36930224609375,-0.01355214001238346,-0.012469130548648535,-0.00026632278598845004
1782891081362324200,10.37932421875,-0.014299158987402916,-0.021435331010259687,-0.0032268530920147895
1782891081372346400,10.389346435546875,-0.022231121030449864,-0.0029990722181275483,-0.009969495752640068
1782891081382368300,10.3993681640625,-0.02357727494239807,-0.002091108794044703,-0.0157869498597458
1782891081392390100,10.40939013671875,-0.013698855006694793,-0.008620236568152905,0.0043717488108202815
1782891081402412300,10.419412353515625,-0.021185995891690252,-0.006291775354277342,-0.0071008084485307335
1782891081412434400,10.429434326171876,-0.030615503016114234,0.004225691403634846,0.00242660609241575
1782891081422456300,10.439456298828125,-0.00652034167945385,-0.012220708745531737,-0.0009852481776848434
1782891081432479500,10.4494794921875,-0.013550970968604087,0.004002002182975411,-0.009865670051984488
1782891081442501400,10.45950146484375,-0.009662731358408927,-0.007832757718581706,-0.006791048379614949
1782891081452523300,10.469523193359375,-0.00517009611427784,-0.0056386817404069,-0.004337481215037405
1782891081462545400,10.47954541015625,-0.022527473628520964,0.0013655344658531248,0.005238850501552224
1782891081472567300,10.4895673828125,-0.016236849051713943,0.0024202128842473027,-0.005135134398750961
1782891081482589200,10.499589111328126,-0.019378069686889647,-0.005500259650405496,0.0013892624013125895
1782891081492611300,10.509611328125,-0.020427286478877066,-0.0010352065329439937,-0.008799136799015105
1782891081502633200,10.51963330078125,-0.013248188629746437,-0.0020411687050946054,0.004140533870831132
1782891081512655400,10.5296552734375,-0.008910451686382293,-0.004934953917842358,0.014981332565285265
1782891081522677200,10.53967724609375,-0.005772738182544708,-0.019864866823144256,0.000589453793130815
1782891081532699400,10.549699462890626,-0.011306406912207603,-0.014900284952018408,-0.002082468829862773
1782891081542721300,10.55972119140625,-0.02043839239478111,0.0006387180286459625,0.006551650133170187
1782891081552744400,10.569744384765626,-0.021782792741060257,-0.007546341992635279,-0.00034019173979759216
1782891081562766300,10.579766357421875,-0.01190086567401886,0.005324610822554678,-0.0013898834558203816
1782891081572788200,10.589788330078125,-0.01623918713927269,-0.006924100174754858,0.00614310586489737
1782891081582810400,10.599810302734374,-0.015940496453642844,-0.017423337156232444,-0.02300681811068207
1782891081592832300,10.609832275390625,-0.013544541227817534,0.0004484744198620319,0.002415098317712545
1782891081602854100,10.619854248046876,-0.016983868026733396,-0.01077995361899957,-0.004999233059398829
1782891081612876300,10.629876220703125,-0.0027688801914453505,-0.008946198853198438,0.0021905323142185807
1782891081622898400,10.6398984375,-0.01564355933368206,0.0013146627951413391,-0.004663315635919571
1782891081632920300,10.64992041015625,-0.019388591080904006,-0.006906491452828049,0.009291633023694157
1782891081642942200,10.659942138671875,-0.007115384963154793,-0.005616616039071232,0.01607753030415624
1782891081652964400,10.66996435546875,-0.019236615389585494,-0.004957476276904345,0.003975479502230882
1782891081662986200,10.679986328125,-0.022373159849643706,-0.00918384353397414,0.009578998597711325
1782891081673009400,10.690009521484376,-0.003809329155087471,0.002246372420992702,-0.007976422239281236
1782891081683031300,10.70003125,-0.0072486559540033335,-0.0045937209984287615,0.010729885665886103
1782891081693053200,10.71005322265625,-0.008145897054672242,-0.005647065976262093,0.002373085806891322
1782891081703075300,10.720075439453124,-0.01038636945784092,-0.010821016281750053,0.007384666891209781
1782891081713097200,10.73009716796875,-0.014873744004964828,-0.009875351195782422,-0.009990319344960152
1782891081723119400,10.740119384765626,-0.020184709894657135,0.0013219693187624215,-0.025035839720256626
1782891081733141200,10.750141357421874,-0.09240472745299338,0.036090664757881315,-0.09242675662171095
1782891081743163400,10.760163330078125,0.023010873231291768,0.01973102957671508,-0.13013535970393567
1782891081753185300,10.770185302734374,-0.027073300364613532,-0.02043906824821606,-0.015913425783626735
1782891081763207200,10.780207275390625,0.008095043650269508,-0.008875544769782572,0.07451580034531652
1782891081773229300,10.790229248046876,-0.006584639087319374,-0.04984324097950011,0.1326496075471863
1782891081783251200,10.800251220703124,0.012377251014113426,-0.021995832703541964,0.10874996878262609
1782891081793273000,10.810273193359375,-0.013182137656211852,-0.03059077043365687,0.05968753944989293
1782891081803296300,10.820296142578124,-0.004304419195652008,-0.013474416867364197,-0.021536124503612517
1782891081813318100,10.830318115234375,-0.03374561773538589,-0.013949651429988443,-0.0631465207973495
1782891081823340300,10.84034033203125,0.014621230548620223,-0.027443540182802824,-0.011528196436725556
1782891081833362400,10.850362548828125,-0.0015776245802640915,-0.014229947942402213,-0.0035637568961828943
1782891081843384300,10.86038427734375,-0.08540800043344497,0.06315872269179672,-0.0736015715772286
1782891081853406200,10.87040625,0.0044791912406682965,-0.006697068219538777,-0.12318108358662574
