time,seconds_elapsed,z,y,x
1782891071003254500,0.020254638671875,-1.005462646484375,-0.019500732421875,0.03240966796875
1782891071013276400,0.0302763671875,-0.9986419677734375,-0.0234527587890625,0.02587890625
1782891071023298600,0.040298583984375,-1.0048980712890625,-0.0202789306640625,0.02996826171875
1782891071033320400,0.050320556640625,-0.999786376953125,-0.02215576171875,0.03759765625
1782891071043342300,0.06034228515625,-0.998199462890625,-0.024169921875,0.03863525390625
1782891071053364500,0.070364501953125,-1.003265380859375,-0.02044677734375,0.0353851318359375
1782891071063387400,0.080387451171875,-0.9984130859375,-0.02056884765625,0.0284271240234375
1782891071073409300,0.0904091796875,-1.00164794921875,-0.0211944580078125,0.0304412841796875
1782891071083431400,0.100431396484375,-1.00274658203125,-0.0193634033203125,0.034027099609375
1782891071093453300,0.110453369140625,-0.9994964599609375,-0.022552490234375,0.0371856689453125
1782891071103475500,0.120475341796875,-1.002227783203125,-0.020904541015625,0.0364532470703125
1782891071113497600,0.13049755859375,-0.9998321533203125,-0.0210113525390625,0.03131103515625
1782891071123519500,0.14051953125,-1.0012359619140625,-0.019287109375,0.0305328369140625
1782891071133541600,0.150541748046875,-1.0019683837890625,-0.021026611328125,0.032318115234375
1782891071143563500,0.1605634765625,-0.9993438720703125,-0.022705078125,0.0363922119140625
1782891071153585400,0.17058544921875,-1.0013275146484375,-0.0215911865234375,0.0348052978515625
1782891071163607600,0.180607666015625,-0.999664306640625,-0.022705078125,0.0308837890625
1782891071173629400,0.19062939453125,-1.0004119873046875,-0.020172119140625,0.0297088623046875
1782891071183651300,0.2006513671875,-1.0020904541015625,-0.0197906494140625,0.03125
1782891071193674500,0.210674560546875,-1.0003204345703125,-0.022491455078125,0.0350494384765625
1782891071203696400,0.2206962890625,-1.0004730224609375,-0.0226287841796875,0.0367431640625
1782891071213718500,0.230718505859375,-1.001007080078125,-0.021636962890625,0.033416748046875
1782891071223740700,0.24074072265625,-0.999847412109375,-0.0207672119140625,0.0303802490234375
1782891071233762600,0.250762451171875,-1.0018768310546875,-0.0204620361328125,0.0320892333984375
1782891071243784400,0.260784423828125,-1.0013885498046875,-0.022003173828125,0.0348358154296875
1782891071253806600,0.270806640625,-1.0012054443359375,-0.0212249755859375,0.0355377197265625
1782891071263828500,0.280828369140625,-0.99969482421875,-0.0205078125,0.034027099609375
1782891071273850400,0.290850341796875,-0.999969482421875,-0.01971435546875,0.0311279296875
1782891071283872500,0.30087255859375,-1.0006256103515625,-0.021453857421875,0.0317535400390625
1782891071293894700,0.310894775390625,-1.000335693359375,-0.0222625732421875,0.0345306396484375
1782891071303916500,0.32091650390625,-0.99993896484375,-0.0218963623046875,0.033599853515625
1782891071313939500,0.330939453125,-1.001373291015625,-0.021331787109375,0.0341796875
1782891071323961600,0.340961669921875,-1.0005645751953125,-0.0206451416015625,0.034332275390625
1782891071333983500,0.3509833984375,-1.0008697509765625,-0.0213775634765625,0.0316925048828125
1782891071344005600,0.361005615234375,-0.9996337890625,-0.021453857421875,0.0317230224609375
1782891071354027500,0.371027587890625,-0.9998931884765625,-0.0225372314453125,0.034210205078125
1782891071364049400,0.38104931640625,-1.0006866455078125,-0.021575927734375,0.035003662109375
1782891071374071600,0.391071533203125,-0.999725341796875,-0.0204620361328125,0.032928466796875
1782891071384093400,0.401093505859375,-1.00048828125,-0.02203369140625,0.0340423583984375
1782891071394115300,0.411115234375,-1.0020904541015625,-0.02166748046875,0.0335235595703125
1782891071404137700,0.4211376953125,-1.00030517578125,-0.020599365234375,0.034576416015625
1782891071414159600,0.43115966796875,-1.0001373291015625,-0.0211334228515625,0.0341644287109375
1782891071424181500,0.441181396484375,-0.9995880126953125,-0.0210418701171875,0.0333251953125
1782891071434203400,0.451203369140625,-1.0003509521484375,-0.0204315185546875,0.0312652587890625
1782891071444226600,0.4612265625,-0.9998321533203125,-0.021759033203125,0.0329437255859375
1782891071454248400,0.47124853515625,-1.001861572265625,-0.021209716796875,0.032318115234375
1782891071464270600,0.4812705078125,-1.0010223388671875,-0.0221099853515625,0.0318603515625
1782891071474292500,0.49129248046875,-0.99951171875,-0.0219573974609375,0.0337371826171875
1782891071484314400,0.501314453125,-1.0003814697265625,-0.0218353271484375,0.0323638916015625
1782891071494336500,0.51133642578125,-1.00079345703125,-0.0223236083984375,0.0324859619140625
1782891071504358700,0.521358642578125,-0.9998779296875,-0.0222015380859375,0.031707763671875
1782891071514380500,0.531380615234375,-0.9997711181640625,-0.02069091796875,0.0328826904296875
1782891071524402700,0.541402587890625,-1.0010223388671875,-0.02081298828125,0.032958984375
1782891071534424600,0.551424560546875,-1.001953125,-0.0225372314453125,0.0318145751953125
1782891071544446500,0.561446533203125,-1.0003814697265625,-0.02166748046875,0.0308074951171875
1782891071554468400,0.57146826171875,-1.0004119873046875,-0.02099609375,0.0333099365234375
1782891071564490500,0.581490478515625,-1.000732421875,-0.021270751953125,0.0338592529296875
1782891071574513400,0.591513427734375,-1.0001220703125,-0.0211334228515625,0.034149169921875
1782891071584535600,0.60153564453125,-1.001129150390625,-0.020965576171875,0.03375244140625
1782891071594557400,0.611557373046875,-1.0012359619140625,-0.0194091796875,0.033905029296875
1782891071604579300,0.621579345703125,-1.0010223388671875,-0.02081298828125,0.0334014892578125
1782891071614601700,0.631601806640625,-0.999053955078125,-0.0221099853515625,0.0330047607421875
1782891071624623600,0.64162353515625,-1.0010986328125,-0.021636962890625,0.0341339111328125
1782891071634645500,0.6516455078125,-1.00128173828125,-0.0203704833984375,0.0328521728515625
1782891071644667400,0.66166748046875,-1.0012969970703125,-0.022705078125,0.0321502685546875
1782891071654689500,0.671689453125,-1.000640869140625,-0.02197265625,0.033782958984375
1782891071664711400,0.68171142578125,-1.000946044921875,-0.021240234375,0.034515380859375
1782891071674733300,0.6917333984375,-1.000518798828125,-0.019500732421875,0.034576416015625
1782891071684755500,0.70175537109375,-1.00048828125,-0.0206756591796875,0.0321502685546875
1782891071694778400,0.7117783203125,-1.0009613037109375,-0.021270751953125,0.0333404541015625
1782891071704800500,0.721800537109375,-1.001708984375,-0.02099609375,0.03369140625
1782891071714822700,0.73182275390625,-1.000732421875,-0.0218505859375,0.03521728515625
1782891071724844500,0.741844482421875,-0.99957275390625,-0.0211334228515625,0.032989501953125
1782891071734866700,0.75186669921875,-1.0009613037109375,-0.021728515625,0.03302001953125
1782891071744888600,0.761888671875,-1.001251220703125,-0.02166748046875,0.033721923828125
1782891071754910500,0.771910400390625,-1.0016326904296875,-0.02105712890625,0.0332794189453125
1782891071764932400,0.781932373046875,-0.99896240234375,-0.0213165283203125,0.0325469970703125
1782891071774954500,0.79195458984375,-1.0002593994140625,-0.0208892822265625,0.03363037109375
1782891071784976400,0.801976318359375,-1.0013885498046875,-0.02044677734375,0.03350830078125
1782891071794998500,0.81199853515625,-1.000732421875,-0.0213165283203125,0.0344085693359375
1782891071805020700,0.822020751953125,-1.0002899169921875,-0.0211029052734375,0.0333099365234375
1782891071815042600,0.83204248046875,-0.999053955078125,-0.02099609375,0.0325927734375
1782891071825065700,0.842065673828125,-1.0001983642578125,-0.020111083984375,0.0337371826171875
1782891071835087600,0.852087646484375,-1.0000457763671875,-0.022308349609375,0.0325927734375
1782891071845109500,0.862109619140625,-1.000091552734375,-0.0213775634765625,0.0324249267578125
1782891071855131400,0.87213134765625,-1.0007476806640625,-0.0216064453125,0.032470703125
1782891071865153500,0.882153564453125,-0.999420166015625,-0.021148681640625,0.03314208984375
1782891071875175400,0.892175537109375,-1.0008697509765625,-0.020965576171875,0.032562255859375
1782891071885197300,0.902197265625,-1.00042724609375,-0.02069091796875,0.032623291015625
1782891071895219500,0.912219482421875,-1.0009002685546875,-0.021728515625,0.0325927734375
1782891071905241600,0.92224169921875,-1.0005950927734375,-0.0217132568359375,0.0335235595703125
1782891071915263500,0.932263427734375,-1.0008544921875,-0.0225677490234375,0.0334320068359375
1782891071925285600,0.94228564453125,-1.0014190673828125,-0.0213470458984375,0.032806396484375
1782891071935307500,0.9523076171875,-1.00091552734375,-0.0206756591796875,0.0320587158203125
1782891071945330400,0.962330322265625,-1.00048828125,-0.0213775634765625,0.0333709716796875
1782891071955352600,0.9723525390625,-1.001678466796875,-0.021697998046875,0.0322113037109375
1782891071965374500,0.98237451171875,-1.0009765625,-0.0216217041015625,0.0320892333984375
1782891071975396400,0.992396240234375,-1.000579833984375,-0.0223236083984375,0.03375244140625
1782891071985418500,1.00241845703125,-0.99969482421875,-0.0221710205078125,0.033935546875
1782891071995440400,1.0124404296875,-1.0003204345703125,-0.0201873779296875,0.032958984375
1782891072005462500,1.022462646484375,-0.9998321533203125,-0.0206298828125,0.0317230224609375
1782891072015484700,1.032484619140625,-1.0004730224609375,-0.022430419921875,0.0329742431640625
1782891072025506600,1.042506591796875,-1.001617431640625,-0.0204315185546875,0.032135009765625
1782891072035528400,1.052528564453125,-1.000457763671875,-0.021881103515625,0.0335540771484375
1782891072045550600,1.062550537109375,-1.0002288818359375,-0.0213165283203125,0.0339202880859375
1782891072055572500,1.072572509765625,-1.0006561279296875,-0.021759033203125,0.0323333740234375
1782891072065594400,1.082594482421875,-1.0003204345703125,-0.02105712890625,0.0340576171875
1782891072075617500,1.092617431640625,-1.0013427734375,-0.020721435546875,0.03350830078125
1782891072085639400,1.102639404296875,-1.000030517578125,-0.0207977294921875,0.03167724609375
1782891072095661300,1.112661376953125,-0.9994964599609375,-0.0231475830078125,0.0324249267578125
1782891072105683500,1.122683349609375,-1.001129150390625,-0.021392822265625,0.0327911376953125
1782891072115705600,1.13270556640625,-1.0007476806640625,-0.021270751953125,0.032989501953125
1782891072125727000,1.14272705078125,-1.00091552734375,-0.0194854736328125,0.032684326171875
1782891072135749000,1.1527490234375,-1.0012359619140625,-0.0211639404296875,0.0336761474609375
1782891072145771000,1.16277099609375,-1.0009002685546875,-0.0205535888671875,0.033721923828125
1782891072155793000,1.17279296875,-1.0014801025390625,-0.0213470458984375,0.0333251953125
1782891072165815000,1.18281494140625,-1.0011749267578125,-0.0200958251953125,0.0336456298828125
1782891072175837000,1.1928369140625,-1.0012969970703125,-0.021697998046875,0.0347747802734375
1782891072185859000,1.202859130859375,-0.999908447265625,-0.0216827392578125,0.0315093994140625
1782891072195881000,1.212880859375,-1.0007781982421875,-0.0205230712890625,0.03326416015625
1782891072205904100,1.222904052734375,-0.9996490478515625,-0.019989013671875,0.03240966796875
1782891072215926000,1.232926025390625,-1.0014190673828125,-0.021636962890625,0.031829833984375
1782891072225948200,1.2429482421875,-1.000732421875,-0.02056884765625,0.0334320068359375
1782891072235970000,1.252969970703125,-1.0017242431640625,-0.02069091796875,0.034698486328125
1782891072245992000,1.262991943359375,-1.0009765625,-0.020660400390625,0.0326690673828125
1782891072256014000,1.27301416015625,-1.000823974609375,-0.0202789306640625,0.0332489013671875
1782891072266036000,1.283035888671875,-1.00048828125,-0.020721435546875,0.033477783203125
1782891072276057900,1.293057861328125,-1.00128173828125,-0.0207366943359375,0.0333709716796875
1782891072286080000,1.303080078125,-1.00103759765625,-0.019744873046875,0.034271240234375
1782891072296102100,1.31310205078125,-1.000518798828125,-0.0204925537109375,0.0330352783203125
1782891072306124000,1.3231240234375,-1.000579833984375,-0.0210113525390625,0.031951904296875
1782891072316146000,1.33314599609375,-1.0009918212890625,-0.021240234375,0.0337677001953125
1782891072326169000,1.343169189453125,-1.0008392333984375,-0.0199432373046875,0.033416748046875
1782891072336191000,1.35319091796875,-0.999725341796875,-0.0229034423828125,0.033843994140625
1782891072346213000,1.363213134765625,-1.0006866455078125,-0.0221405029296875,0.0351715087890625
1782891072356235000,1.373235107421875,-1.000823974609375,-0.0208892822265625,0.0328369140625
1782891072366257000,1.3832568359375,-1.0009765625,-0.0210418701171875,0.0329437255859375
1782891072376279000,1.393279052734375,-1.0012969970703125,-0.0218048095703125,0.0325927734375
1782891072386301000,1.403301025390625,-0.99969482421875,-0.021240234375,0.0338592529296875
1782891072396323000,1.413322998046875,-1.00103759765625,-0.0205078125,0.0338134765625
1782891072406345000,1.423344970703125,-1.000762939453125,-0.0204620361328125,0.033599853515625
1782891072416367000,1.4333671875,-1.000030517578125,-0.0222015380859375,0.033355712890625
1782891072426389000,1.443388916015625,-0.9992828369140625,-0.0197296142578125,0.0344390869140625
1782891072436411000,1.453410888671875,-1.0007476806640625,-0.0211181640625,0.0330810546875
1782891072446433000,1.46343310546875,-1.001312255859375,-0.0202789306640625,0.0330047607421875
1782891072456456000,1.4734560546875,-1.0018463134765625,-0.0207366943359375,0.033905029296875
1782891072466478000,1.48347802734375,-1.0002288818359375,-0.021759033203125,0.033203125
1782891072476500000,1.4935,-1.0016021728515625,-0.0215301513671875,0.033050537109375
1782891072486521900,1.50352197265625,-1.0016021728515625,-0.02117919921875,0.0341949462890625
1782891072496544000,1.5135439453125,-1.0009002685546875,-0.0204315185546875,0.032958984375
1782891072506566100,1.523566162109375,-1.001434326171875,-0.0232696533203125,0.0347747802734375
1782891072516588000,1.533588134765625,-1.0022430419921875,-0.0216827392578125,0.0335235595703125
1782891072526610000,1.54360986328125,-1.0005645751953125,-0.0216217041015625,0.0314788818359375
1782891072536632000,1.553632080078125,-1.0002288818359375,-0.0199737548828125,0.032470703125
1782891072546654000,1.563654052734375,-1.000244140625,-0.02099609375,0.0330963134765625
1782891072556675800,1.57367578125,-1.00201416015625,-0.021636962890625,0.03240966796875
1782891072566698000,1.583697998046875,-1.0010986328125,-0.0207061767578125,0.0326385498046875
1782891072576720000,1.593719970703125,-1.0010528564453125,-0.0205230712890625,0.032806396484375
1782891072586743000,1.603742919921875,-1.0007476806640625,-0.0214996337890625,0.03375244140625
1782891072596765000,1.613764892578125,-1.0016021728515625,-0.022064208984375,0.0330810546875
1782891072606787000,1.623787109375,-0.9994964599609375,-0.02166748046875,0.0322723388671875
1782891072616809000,1.63380908203125,-1.000946044921875,-0.021575927734375,0.0343017578125
1782891072626831000,1.6438310546875,-1.002197265625,-0.0205535888671875,0.0349578857421875
1782891072636853000,1.65385302734375,-1.0007476806640625,-0.02130126953125,0.033050537109375
1782891072646875000,1.663875,-1.000457763671875,-0.0210113525390625,0.034271240234375
1782891072656897000,1.67389697265625,-1.00091552734375,-0.021759033203125,0.0334320068359375
1782891072666919000,1.6839189453125,-1.0001068115234375,-0.0220489501953125,0.0339202880859375
1782891072676940800,1.69394091796875,-1.000335693359375,-0.02032470703125,0.0329132080078125
1782891072686963200,1.703963134765625,-0.9998931884765625,-0.020904541015625,0.031341552734375
1782891072696985000,1.713985107421875,-1.00103759765625,-0.0216522216796875,0.0330352783203125
1782891072707007000,1.724007080078125,-1.001983642578125,-0.0211639404296875,0.0323333740234375
1782891072717030100,1.734030029296875,-1.0014801025390625,-0.02203369140625,0.03350830078125
1782891072727052000,1.744052001953125,-1.0033111572265625,-0.020721435546875,0.0342559814453125
1782891072737074000,1.754073974609375,-1.0015716552734375,-0.0223541259765625,0.0344085693359375
1782891072747096000,1.764095947265625,-0.9998321533203125,-0.02105712890625,0.0332183837890625
1782891072757118000,1.774117919921875,-1.0020904541015625,-0.0213470458984375,0.0323638916015625
1782891072767139800,1.784139892578125,-1.0001983642578125,-0.0200653076171875,0.0326080322265625
1782891072777162000,1.794161865234375,-0.99993896484375,-0.020416259765625,0.0330963134765625
1782891072787184000,1.80418408203125,-0.9992828369140625,-0.0218505859375,0.03363037109375
1782891072797206000,1.8142060546875,-1.0005950927734375,-0.020965576171875,0.0341949462890625
1782891072807228200,1.824228271484375,-1.001312255859375,-0.021759033203125,0.033203125
1782891072817250000,1.83425,-1.000640869140625,-0.022216796875,0.033660888671875
1782891072827272000,1.84427197265625,-1.000030517578125,-0.0207366943359375,0.0334930419921875
1782891072837294000,1.854294189453125,-1.0007171630859375,-0.02130126953125,0.0335540771484375
1782891072847317000,1.86431689453125,-1.0006103515625,-0.0203857421875,0.033233642578125
1782891072857339000,1.8743388671875,-1.001068115234375,-0.0229949951171875,0.033416748046875
1782891072867361000,1.884361083984375,-1.0010986328125,-0.0212860107421875,0.0343017578125
1782891072877383000,1.8943828125,-0.999908447265625,-0.0209503173828125,0.033294677734375
1782891072887404800,1.90440478515625,-0.999725341796875,-0.02191162109375,0.034698486328125
1782891072897427200,1.91442724609375,-1.000732421875,-0.021453857421875,0.0322418212890625
1782891072907449000,1.924448974609375,-1.001434326171875,-0.0217742919921875,0.03277587890625
1782891072917471000,1.934470947265625,-1.0006256103515625,-0.0207366943359375,0.0333099365234375
1782891072927493000,1.9444931640625,-1.0009918212890625,-0.0225677490234375,0.0332183837890625
1782891072937515000,1.954514892578125,-0.9996337890625,-0.0217437744140625,0.0321807861328125
1782891072947537000,1.964536865234375,-1.0003509521484375,-0.0203857421875,0.03375244140625
1782891072957559000,1.97455908203125,-1.0007781982421875,-0.0205230712890625,0.0325164794921875
1782891072967581000,1.984580810546875,-0.9990081787109375,-0.02178955078125,0.0333251953125
1782891072977603800,1.994603759765625,-1.0001983642578125,-0.021728515625,0.033721923828125
1782891072987626000,2.0046259765625,-1.0020904541015625,-0.0205535888671875,0.03411865234375
1782891072997648100,2.014648193359375,-1.000885009765625,-0.022674560546875,0.0336151123046875
1782891073007670000,2.024669921875,-1.0021209716796875,-0.0201416015625,0.033111572265625
1782891073017692200,2.034692138671875,-0.998870849609375,-0.020751953125,0.03118896484375
1782891073027714000,2.044714111328125,-1.0006103515625,-0.021209716796875,0.032928466796875
1782891073037736000,2.05473583984375,-1.0009765625,-0.0222625732421875,0.0332794189453125
1782891073047758000,2.064758056640625,-1.0009307861328125,-0.0229034423828125,0.0326385498046875
1782891073057780000,2.074780029296875,-0.9998016357421875,-0.0232391357421875,0.0335693359375
1782891073067801900,2.0848017578125,-1.0002288818359375,-0.0217132568359375,0.0331573486328125
1782891073077824000,2.094823974609375,-1.0008392333984375,-0.0200958251953125,0.032470703125
1782891073087846100,2.10484619140625,-1.0008392333984375,-0.0210723876953125,0.0337066650390625
1782891073097868800,2.114868896484375,-1.0014495849609375,-0.0225372314453125,0.0340576171875
1782891073107891200,2.12489111328125,-1.0005035400390625,-0.0214385986328125,0.0321044921875
1782891073117913000,2.1349130859375,-1.0016326904296875,-0.022247314453125,0.0333251953125
1782891073127935700,2.144935791015625,-1.0001983642578125,-0.0220794677734375,0.0328826904296875
1782891073137957600,2.15495751953125,-1.001007080078125,-0.0204620361328125,0.033538818359375
1782891073147979800,2.164979736328125,-1.000274658203125,-0.0200042724609375,0.033050537109375
1782891073158001700,2.175001708984375,-1.0008697509765625,-0.0207366943359375,0.0312042236328125
1782891073168023600,2.1850234375,-1.00140380859375,-0.021209716796875,0.03302001953125
1782891073178045400,2.19504541015625,-1.001068115234375,-0.022003173828125,0.031463623046875
1782891073188067600,2.205067626953125,-1.001495361328125,-0.0219268798828125,0.03228759765625
1782891073198089500,2.21508935546875,-1.0009613037109375,-0.0215606689453125,0.03240966796875
1782891073208111600,2.225111572265625,-1.0006103515625,-0.0202178955078125,0.0330657958984375
1782891073218133800,2.2351337890625,-1.00213623046875,-0.021820068359375,0.034759521484375
1782891073228156700,2.24515673828125,-1.0000762939453125,-0.020355224609375,0.0331878662109375
1782891073238178800,2.2551787109375,-1.0009002685546875,-0.0216827392578125,0.033294677734375
1782891073248200700,2.26520068359375,-1.00091552734375,-0.02227783203125,0.0333404541015625
1782891073258222600,2.27522265625,-1.00030517578125,-0.0219268798828125,0.03277587890625
1782891073268244700,2.28524462890625,-1.0001983642578125,-0.021148681640625,0.0320281982421875
1782891073278266600,2.2952666015625,-1.000396728515625,-0.021331787109375,0.0333709716796875
1782891073288288500,2.30528857421875,-0.999969482421875,-0.02099609375,0.0328369140625
1782891073298310400,2.315310302734375,-1.0008087158203125,-0.02069091796875,0.0337677001953125
1782891073308332800,2.325332763671875,-0.9996337890625,-0.022125244140625,0.0326080322265625
1782891073318354700,2.335354736328125,-0.999786376953125,-0.02166748046875,0.033172607421875
1782891073328376600,2.34537646484375,-1.002410888671875,-0.02227783203125,0.0323333740234375
1782891073338398700,2.355398681640625,-1.0016632080078125,-0.0221710205078125,0.0330657958984375
1782891073348420600,2.365420654296875,-1.001373291015625,-0.020477294921875,0.034149169921875
1782891073358443800,2.37544384765625,-0.999603271484375,-0.0213165283203125,0.033905029296875
1782891073368465700,2.385465576171875,-1.0009002685546875,-0.020721435546875,0.0326080322265625
1782891073378487600,2.395487548828125,-1.0014801025390625,-0.021240234375,0.034698486328125
1782891073388509400,2.405509521484375,-1.00140380859375,-0.0212554931640625,0.0333099365234375
1782891073398531600,2.415531494140625,-1.001922607421875,-0.0207061767578125,0.03338623046875
1782891073408553700,2.4255537109375,-1.0000457763671875,-0.019989013671875,0.032318115234375
1782891073418575600,2.43557568359375,-1.0015411376953125,-0.020660400390625,0.0341339111328125
1782891073428597800,2.44559765625,-1.00091552734375,-0.0214996337890625,0.033966064453125
1782891073438619600,2.45561962890625,-1.0012359619140625,-0.0221405029296875,0.0335845947265625
1782891073448641500,2.4656416015625,-1.000335693359375,-0.0214691162109375,0.0341796875
1782891073458663700,2.47566357421875,-1.000213623046875,-0.02056884765625,0.032196044921875
1782891073468685600,2.485685546875,-0.9998626708984375,-0.02093505859375,0.0319976806640625
1782891073478707500,2.49570751953125,-0.9995574951171875,-0.02081298828125,0.0331878662109375
1782891073488730600,2.505730712890625,-1.0012664794921875,-0.0217742919921875,0.032470703125
1782891073498752500,2.51575244140625,-1.001953125,-0.020477294921875,0.03314208984375
1782891073508774400,2.5257744140625,-1.0013580322265625,-0.0205535888671875,0.0334625244140625
1782891073518796800,2.535796875,-1.0001068115234375,-0.022247314453125,0.0329132080078125
1782891073528818700,2.545818603515625,-1.0010528564453125,-0.022003173828125,0.0320892333984375
1782891073538840600,2.555840576171875,-1.0016937255859375,-0.0205078125,0.03179931640625
1782891073548862700,2.56586279296875,-1.00152587890625,-0.0212554931640625,0.03363037109375
1782891073558884600,2.575884521484375,-0.9999847412109375,-0.0206756591796875,0.03350830078125
1782891073568906500,2.585906494140625,-1.0007476806640625,-0.0199737548828125,0.03375244140625
1782891073578928600,2.5959287109375,-0.9998779296875,-0.0208587646484375,0.031280517578125
1782891073588950500,2.605950439453125,-1.0013275146484375,-0.021514892578125,0.0328216552734375
1782891073598972700,2.61597265625,-1.001129150390625,-0.0205535888671875,0.0324859619140625
1782891073608994800,2.625994873046875,-1.001495361328125,-0.02099609375,0.034576416015625
1782891073619017700,2.636017822265625,-1.0007781982421875,-0.022430419921875,0.033294677734375
1782891073629039600,2.64603955078125,-1.0015106201171875,-0.0213165283203125,0.0323486328125
1782891073639061800,2.656061767578125,-1.0012359619140625,-0.0223846435546875,0.031768798828125
1782891073649083600,2.666083740234375,-1.0008544921875,-0.022857666015625,0.0339508056640625
1782891073659105500,2.67610546875,-1.0013580322265625,-0.0207366943359375,0.03302001953125
1782891073669127700,2.686127685546875,-1.0005645751953125,-0.0211639404296875,0.033050537109375
1782891073679149600,2.696149658203125,-1.0009613037109375,-0.0216522216796875,0.033355712890625
1782891073689171500,2.70617138671875,-1.000335693359375,-0.02215576171875,0.0336151123046875
1782891073699193600,2.716193603515625,-1.001708984375,-0.0213165283203125,0.033843994140625
1782891073709215700,2.7262158203125,-1.00067138671875,-0.0226898193359375,0.0317840576171875
1782891073719237600,2.736237548828125,-0.999755859375,-0.021453857421875,0.03369140625
1782891073729259800,2.746259765625,-1.0015106201171875,-0.0205535888671875,0.0343170166015625
1782891073739281700,2.75628173828125,-1.0012664794921875,-0.01995849609375,0.032501220703125
1782891073749304600,2.7663046875,-1.00177001953125,-0.0218505859375,0.033203125
1782891073759326700,2.77632666015625,-1.0018463134765625,-0.0206146240234375,0.0326995849609375
1782891073769348600,2.7863486328125,-0.99945068359375,-0.020660400390625,0.0325927734375
1782891073779370500,2.79637060546875,-0.9989776611328125,-0.02105712890625,0.0333251953125
1782891073789392600,2.806392578125,-1.001556396484375,-0.02130126953125,0.0332489013671875
1782891073799414500,2.81641455078125,-1.000823974609375,-0.02154541015625,0.0339813232421875
1782891073809436700,2.826436767578125,-0.9999237060546875,-0.021453857421875,0.0328521728515625
1782891073819458800,2.836458740234375,-1.00018310546875,-0.0216064453125,0.0342864990234375
1782891073829480700,2.846480712890625,-1.0004730224609375,-0.021575927734375,0.0329132080078125
1782891073839502600,2.856502685546875,-1.0007781982421875,-0.0206756591796875,0.0323944091796875
1782891073849524700,2.866524658203125,-0.9988250732421875,-0.0210113525390625,0.034210205078125
1782891073859546600,2.876546630859375,-0.9995880126953125,-0.0219879150390625,0.032928466796875
1782891073869568500,2.886568603515625,-1.0017852783203125,-0.0222015380859375,0.0329437255859375
1782891073879591700,2.896591796875,-1.000732421875,-0.0220184326171875,0.034393310546875
1782891073889613600,2.906613525390625,-1.0014190673828125,-0.020965576171875,0.0340118408203125
1782891073899635500,2.916635498046875,-1.000030517578125,-0.01959228515625,0.0337677001953125
1782891073909657600,2.92665771484375,-1.0001678466796875,-0.0216064453125,0.032318115234375
1782891073919679700,2.9366796875,-1.0005035400390625,-0.0216827392578125,0.033447265625
1782891073929701600,2.94670166015625,-1.0005340576171875,-0.021514892578125,0.0339202880859375
1782891073939723800,2.956723876953125,-1.001708984375,-0.0205230712890625,0.0327301025390625
1782891073949745700,2.96674560546875,-1.00213623046875,-0.019683837890625,0.0332183837890625
1782891073959767600,2.976767578125,-1.000640869140625,-0.0209808349609375,0.0325469970703125
1782891073969789700,2.986789794921875,-1.00067138671875,-0.0211944580078125,0.032989501953125
1782891073979811600,2.9968115234375,-1.0005035400390625,-0.0208587646484375,0.032806396484375
1782891073989833500,3.00683349609375,-1.0007781982421875,-0.021240234375,0.0335235595703125
1782891073999855600,3.016855712890625,-1.0017852783203125,-0.0215301513671875,0.0338134765625
1782891074009878500,3.02687841796875,-1.0006561279296875,-0.021270751953125,0.03399658203125
1782891074019900700,3.036900634765625,-0.9998779296875,-0.0200958251953125,0.0317840576171875
1782891074029922800,3.0469228515625,-1.0016021728515625,-0.020660400390625,0.033233642578125
1782891074039944700,3.05694482421875,-1.0011749267578125,-0.0211334228515625,0.0330047607421875
1782891074049966600,3.066966552734375,-1.001068115234375,-0.022979736328125,0.033111572265625
1782891074059988700,3.07698876953125,-1.000732421875,-0.0222930908203125,0.0330657958984375
1782891074070010600,3.0870107421875,-1.0012359619140625,-0.02105712890625,0.0334625244140625
1782891074080032500,3.097032470703125,-0.9998626708984375,-0.02008056640625,0.032684326171875
1782891074090054400,3.107054443359375,-0.999359130859375,-0.021636962890625,0.034454345703125
1782891074100076800,3.117076904296875,-0.99981689453125,-0.02191162109375,0.0342559814453125
1782891074110098700,3.1270986328125,-1.0016632080078125,-0.0212554931640625,0.0338897705078125
1782891074120120600,3.13712060546875,-0.9990081787109375,-0.0209503173828125,0.034576416015625
1782891074130143000,3.14714306640625,-1.0016632080078125,-0.021331787109375,0.0327911376953125
1782891074140166000,3.157165771484375,-1.0011138916015625,-0.021636962890625,0.0329742431640625
1782891074150188000,3.16718798828125,-1.00079345703125,-0.0214385986328125,0.03265380859375
1782891074160210000,3.1772099609375,-1.001678466796875,-0.02056884765625,0.0326690673828125
1782891074170231800,3.187231689453125,-1.0019378662109375,-0.0215606689453125,0.0332489013671875
1782891074180254000,3.19725390625,-1.0011444091796875,-0.022735595703125,0.0332489013671875
1782891074190275800,3.20727587890625,-1.000244140625,-0.0217437744140625,0.0327301025390625
1782891074200297700,3.217297607421875,-1.0003814697265625,-0.0216217041015625,0.032440185546875
1782891074210320000,3.22731982421875,-0.9998321533203125,-0.021820068359375,0.03338623046875
1782891074220342000,3.237342041015625,-1.0011749267578125,-0.021240234375,0.032440185546875
1782891074230364000,3.247364013671875,-1.0004425048828125,-0.02099609375,0.0340118408203125
1782891074240385800,3.2573857421875,-1.0012359619140625,-0.0207366943359375,0.034393310546875
1782891074250408000,3.267407958984375,-1.0006866455078125,-0.0209503173828125,0.0323333740234375
1782891074260429800,3.277429931640625,-1.00042724609375,-0.02020263671875,0.032012939453125
1782891074270453000,3.287452880859375,-1.0000762939453125,-0.021148681640625,0.0322723388671875
1782891074280475000,3.297474853515625,-1.00067138671875,-0.0220184326171875,0.033050537109375
1782891074290496800,3.307496826171875,-1.0023345947265625,-0.019989013671875,0.0322113037109375
1782891074300519000,3.317518798828125,-1.0019378662109375,-0.0216522216796875,0.03271484375
1782891074310540800,3.327540771484375,-1.00128173828125,-0.021575927734375,0.034149169921875
1782891074320563000,3.33756298828125,-1.0010223388671875,-0.021331787109375,0.0319366455078125
1782891074330584800,3.347584716796875,-1.0014801025390625,-0.0211181640625,0.0323333740234375
1782891074340607000,3.35760693359375,-0.9996337890625,-0.021209716796875,0.0338287353515625
1782891074350628900,3.36762890625,-1.0008087158203125,-0.020599365234375,0.0330352783203125
1782891074360650800,3.377650634765625,-1.00164794921875,-0.0210113525390625,0.0329437255859375
1782891074370673000,3.3876728515625,-1.001922607421875,-0.0214080810546875,0.034027099609375
1782891074380694800,3.39769482421875,-1.000732421875,-0.0220794677734375,0.03314208984375
1782891074390716700,3.407716552734375,-1.001068115234375,-0.0207366943359375,0.0340423583984375
1782891074400739800,3.41773974609375,-1.0005950927734375,-0.020111083984375,0.0335235595703125
1782891074410761700,3.42776171875,-1.000946044921875,-0.0214385986328125,0.0329742431640625
1782891074420783900,3.437783935546875,-1.0008544921875,-0.0203857421875,0.0329132080078125
1782891074430806000,3.447805908203125,-1.00067138671875,-0.0196685791015625,0.0333709716796875
1782891074440828000,3.457827880859375,-0.99993896484375,-0.0216827392578125,0.03277587890625
1782891074450849800,3.467849853515625,-1.00018310546875,-0.02142333984375,0.0312042236328125
1782891074460872000,3.477871826171875,-1.0010833740234375,-0.0223388671875,0.033447265625
1782891074470893800,3.487893798828125,-0.99932861328125,-0.022064208984375,0.03399658203125
1782891074480915700,3.497915771484375,-1.0000152587890625,-0.0217742919921875,0.03314208984375
1782891074490937900,3.507937744140625,-1.0012054443359375,-0.0207366943359375,0.03228759765625
1782891074500960000,3.5179599609375,-1.0010528564453125,-0.0215606689453125,0.0331878662109375
1782891074510982000,3.52798193359375,-1.0003814697265625,-0.0228424072265625,0.03338623046875
1782891074521004000,3.538004150390625,-1.001007080078125,-0.0205230712890625,0.03179931640625
1782891074531027000,3.54802685546875,-0.9999847412109375,-0.0209808349609375,0.033447265625
1782891074541048800,3.558048828125,-0.9999847412109375,-0.0213623046875,0.0342864990234375
1782891074551071000,3.568071044921875,-1.001251220703125,-0.0213623046875,0.0331573486328125
1782891074561092900,3.5780927734375,-1.0004425048828125,-0.0218963623046875,0.0324859619140625
1782891074571114800,3.58811474609375,-1.0015411376953125,-0.021087646484375,0.031982421875
1782891074581137000,3.598136962890625,-1.00054931640625,-0.0225830078125,0.0330352783203125
1782891074591158800,3.60815869140625,-1.0001678466796875,-0.022491455078125,0.03271484375
1782891074601180700,3.6181806640625,-0.9994354248046875,-0.0215911865234375,0.0328216552734375
1782891074611203000,3.628203125,-1.0012664794921875,-0.0216522216796875,0.032867431640625
1782891074621225000,3.638224853515625,-1.001373291015625,-0.0209197998046875,0.0329132080078125
1782891074631246800,3.648246826171875,-1.0011749267578125,-0.0221710205078125,0.033416748046875
1782891074641269000,3.65826904296875,-0.99993896484375,-0.0214080810546875,0.033660888671875
1782891074651291000,3.668290771484375,-1.0019683837890625,-0.0212249755859375,0.032501220703125
1782891074661312800,3.678312744140625,-1.00067138671875,-0.021728515625,0.03277587890625
1782891074671336000,3.6883359375,-0.9997100830078125,-0.021331787109375,0.0346527099609375
1782891074681357800,3.69835791015625,-1.000762939453125,-0.02081298828125,0.034393310546875
1782891074691379700,3.708379638671875,-1.00006103515625,-0.0206298828125,0.034088134765625
1782891074701401900,3.71840185546875,-0.999664306640625,-0.0215606689453125,0.03369140625
1782891074711424000,3.728424072265625,-0.9994354248046875,-0.022064208984375,0.0349578857421875
1782891074721446000,3.73844580078125,-1.001739501953125,-0.0212249755859375,0.0321197509765625
1782891074731468000,3.748468017578125,-1.001373291015625,-0.021209716796875,0.0313720703125
1782891074741490000,3.758489990234375,-1.000885009765625,-0.021881103515625,0.0323028564453125
1782891074751511800,3.76851171875,-1,-0.0203857421875,0.03125
1782891074761534000,3.778533935546875,-0.999542236328125,-0.0223846435546875,0.0328521728515625
1782891074771555800,3.788555908203125,-1.00244140625,-0.020843505859375,0.033721923828125
1782891074781577700,3.79857763671875,-1.0020294189453125,-0.0202789306640625,0.03363037109375
1782891074791601000,3.808600830078125,-1.0006561279296875,-0.020721435546875,0.03509521484375
1782891074801622800,3.818622802734375,-0.999603271484375,-0.0222625732421875,0.0343780517578125
1782891074811644700,3.828644775390625,-1.000946044921875,-0.0203704833984375,0.0331268310546875
1782891074821667000,3.8386669921875,-1.0012054443359375,-0.022003173828125,0.0323028564453125
1782891074831689000,3.84868896484375,-1.0010833740234375,-0.020965576171875,0.0323028564453125
1782891074841710800,3.8587109375,-1.0004425048828125,-0.02130126953125,0.0334014892578125
1782891074851733000,3.86873291015625,-1.0011138916015625,-0.0212554931640625,0.033294677734375
1782891074861755000,3.8787548828125,-1.0005340576171875,-0.0200042724609375,0.034149169921875
1782891074871776800,3.88877685546875,-1.000396728515625,-0.0212249755859375,0.034820556640625
1782891074881799000,3.898798828125,-1.001007080078125,-0.021697998046875,0.0343017578125
1782891074891820800,3.90882080078125,-1.001251220703125,-0.02203369140625,0.0330963134765625
1782891074901841000,3.9188408203125,-1.0009918212890625,-0.021453857421875,0.0330047607421875
1782891074911862800,3.92886279296875,-1.000457763671875,-0.021820068359375,0.0338592529296875
1782891074921884700,3.938884765625,-0.9992523193359375,-0.021728515625,0.0341644287109375
1782891074931906800,3.94890673828125,-1.0019989013671875,-0.020751953125,0.0328521728515625
1782891074941929000,3.958928955078125,-1.0012969970703125,-0.0228729248046875,0.033111572265625
1782891074951950800,3.968950927734375,-1.0010833740234375,-0.0219268798828125,0.0337677001953125
1782891074961974000,3.97897412109375,-1.0019989013671875,-0.02166748046875,0.034210205078125
1782891074971996000,3.988995849609375,-1.002044677734375,-0.02081298828125,0.032684326171875
1782891074982018000,3.99901806640625,-1.0013427734375,-0.0212554931640625,0.032012939453125
1782891074992040000,4.0090400390625,-0.9995880126953125,-0.02166748046875,0.03326416015625
1782891075002061800,4.019061767578125,-1.0009918212890625,-0.021331787109375,0.031585693359375
1782891075012083700,4.029083740234375,-1.001312255859375,-0.0210418701171875,0.033294677734375
1782891075022105900,4.03910595703125,-1.000579833984375,-0.0217132568359375,0.032989501953125
1782891075032127700,4.049127685546875,-1.000244140625,-0.0206756591796875,0.03338623046875
1782891075042150000,4.05914990234375,-1.00054931640625,-0.02142333984375,0.0322418212890625
1782891075052172000,4.069172119140625,-1.0005035400390625,-0.022064208984375,0.032928466796875
1782891075062194000,4.07919384765625,-1.0008392333984375,-0.02191162109375,0.0319366455078125
1782891075072215800,4.0892158203125,-1.0002593994140625,-0.0210113525390625,0.033843994140625
1782891075082238000,4.099238037109375,-1.0023040771484375,-0.02105712890625,0.0321807861328125
1782891075092260900,4.1092607421875,-1.0005645751953125,-0.021697998046875,0.0330963134765625
1782891075102282800,4.11928271484375,-1.000946044921875,-0.0203399658203125,0.0344696044921875
1782891075112305000,4.129304931640625,-1.0002288818359375,-0.0215606689453125,0.0329742431640625
1782891075122326800,4.139326904296875,-1.0013427734375,-0.022369384765625,0.033660888671875
1782891075132348400,4.149348388671875,-1.000640869140625,-0.020965576171875,0.032470703125
1782891075142370600,4.15937060546875,-1.0002899169921875,-0.0209503173828125,0.0320587158203125
1782891075152392400,4.169392333984375,-0.9992828369140625,-0.0213165283203125,0.033660888671875
1782891075162414300,4.179414306640625,-1.001312255859375,-0.020599365234375,0.03460693359375
1782891075172436500,4.1894365234375,-1.0015716552734375,-0.0231170654296875,0.03277587890625
1782891075182458400,4.199458251953125,-1.000518798828125,-0.0216064453125,0.0328369140625
1782891075192480300,4.209480224609375,-0.999755859375,-0.0213775634765625,0.0345916748046875
1782891075202502400,4.21950244140625,-1.0005950927734375,-0.0205841064453125,0.032867431640625
1782891075212524300,4.229524169921875,-1.0015411376953125,-0.02197265625,0.033660888671875
1782891075222547500,4.23954736328125,-1.000762939453125,-0.0208587646484375,0.0333099365234375
1782891075232569300,4.2495693359375,-1.00067138671875,-0.0210418701171875,0.0327606201171875
1782891075242591500,4.259591552734375,-1.0012664794921875,-0.0213165283203125,0.032257080078125
1782891075252613400,4.26961328125,-1.0011749267578125,-0.02203369140625,0.0330810546875
1782891075262635500,4.279635498046875,-1.0003662109375,-0.0206756591796875,0.0335845947265625
1782891075272659200,4.2896591796875,-1.0016326904296875,-0.0219573974609375,0.0330810546875
1782891075282681300,4.299681396484375,-1.0009613037109375,-0.0213470458984375,0.03436279296875
1782891075292703500,4.309703369140625,-1,-0.02117919921875,0.032562255859375
1782891075302725400,4.319725341796875,-1.0009002685546875,-0.02099609375,0.0328216552734375
1782891075312748500,4.32974853515625,-1.0018157958984375,-0.0208282470703125,0.0334930419921875
1782891075322770400,4.3397705078125,-0.9997711181640625,-0.0206298828125,0.03314208984375
1782891075332792600,4.34979248046875,-1.000946044921875,-0.021087646484375,0.034881591796875
1782891075342814500,4.359814453125,-1.00042724609375,-0.02081298828125,0.0333251953125
1782891075352836400,4.36983642578125,-0.9997406005859375,-0.0214385986328125,0.0318450927734375
1782891075362858500,4.3798583984375,-1.0002899169921875,-0.0227508544921875,0.032958984375
1782891075372880400,4.38988037109375,-1.0001373291015625,-0.0220947265625,0.033782958984375
1782891075382902300,4.39990234375,-1.0007476806640625,-0.020965576171875,0.0316925048828125
1782891075392924400,4.40992431640625,-1.0011444091796875,-0.020416259765625,0.03143310546875
1782891075402946600,4.419946533203125,-1.00115966796875,-0.0219573974609375,0.032379150390625
1782891075412968400,4.429968505859375,-1.001373291015625,-0.021484375,0.032440185546875
1782891075422990300,4.439990234375,-1.00201416015625,-0.02001953125,0.033782958984375
1782891075433012500,4.450012451171875,-1.001739501953125,-0.0195770263671875,0.03375244140625
1782891075443035400,4.460035400390625,-1.0003814697265625,-0.021728515625,0.0341339111328125
1782891075453057500,4.4700576171875,-1.0009765625,-0.021575927734375,0.0335235595703125
1782891075463079400,4.480079345703125,-1.0011444091796875,-0.0217437744140625,0.032928466796875
1782891075473101300,4.490101318359375,-1.0009765625,-0.0216064453125,0.0317535400390625
1782891075483123200,4.500123291015625,-1.0003509521484375,-0.020782470703125,0.03314208984375
1782891075493145300,4.510145263671875,-1.0015106201171875,-0.0212249755859375,0.0334320068359375
1782891075503167500,4.52016748046875,-1.0011444091796875,-0.0211029052734375,0.0342864990234375
1782891075513189400,4.530189453125,-0.999542236328125,-0.021270751953125,0.033050537109375
1782891075523211500,4.54021142578125,-0.999786376953125,-0.0207061767578125,0.033447265625
1782891075533233400,4.5502333984375,-1.00048828125,-0.0203704833984375,0.034210205078125
1782891075543255300,4.56025537109375,-0.9995269775390625,-0.0203399658203125,0.0345916748046875
1782891075553277400,4.57027734375,-1.00042724609375,-0.021148681640625,0.03253173828125
1782891075563300400,4.58030029296875,-1.0005340576171875,-0.020843505859375,0.03240966796875
1782891075573322500,4.590322509765625,-1.0006103515625,-0.0205230712890625,0.0338287353515625
1782891075583344400,4.600344482421875,-1.001220703125,-0.0215606689453125,0.0338134765625
1782891075593366300,4.6103662109375,-1.0019989013671875,-0.021270751953125,0.0341033935546875
1782891075603388400,4.620388427734375,-1.000457763671875,-0.0207977294921875,0.0318603515625
1782891075613410600,4.63041064453125,-0.9999542236328125,-0.0220794677734375,0.0323638916015625
1782891075623432400,4.640432373046875,-1.0004730224609375,-0.0214080810546875,0.0327301025390625
1782891075633454300,4.650454345703125,-1.0009307861328125,-0.0214080810546875,0.032257080078125
1782891075643476500,4.6604765625,-1.0014801025390625,-0.021697998046875,0.0336761474609375
1782891075653498400,4.670498291015625,-1.0008544921875,-0.02117919921875,0.033905029296875
1782891075663520300,4.680520263671875,-1.0004119873046875,-0.0217437744140625,0.0313262939453125
1782891075673542400,4.69054248046875,-1.0007476806640625,-0.020355224609375,0.03289794921875
1782891075683565300,4.7005654296875,-1.001983642578125,-0.0203704833984375,0.03424072265625
1782891075693587200,4.710587158203125,-0.99957275390625,-0.0215911865234375,0.0333099365234375
1782891075703609300,4.720609375,-1.00091552734375,-0.0216522216796875,0.032745361328125
1782891075713631500,4.730631591796875,-1.0013580322265625,-0.021209716796875,0.0330963134765625
1782891075723653400,4.7406533203125,-1.0003509521484375,-0.01983642578125,0.031768798828125
1782891075733675500,4.750675537109375,-1.001983642578125,-0.021514892578125,0.032196044921875
1782891075743697400,4.760697509765625,-1.0006103515625,-0.0214385986328125,0.03253173828125
1782891075753719300,4.77071923828125,-1.00018310546875,-0.0201568603515625,0.0347747802734375
1782891075763741400,4.780741455078125,-1.000823974609375,-0.021148681640625,0.0347442626953125
1782891075773763300,4.790763427734375,-1.0003662109375,-0.02154541015625,0.033599853515625
1782891075783785200,4.80078515625,-1.001617431640625,-0.0193634033203125,0.0341644287109375
1782891075793807600,4.8108076171875,-1.0011138916015625,-0.0201568603515625,0.0323944091796875
1782891075803829500,4.82082958984375,-1.0002288818359375,-0.0219268798828125,0.0318603515625
1782891075813851400,4.830851318359375,-1.0005950927734375,-0.022247314453125,0.0332489013671875
1782891075823874600,4.84087451171875,-1.000396728515625,-0.0221405029296875,0.0346527099609375
1782891075833896400,4.850896484375,-1.000518798828125,-0.0214691162109375,0.0323944091796875
1782891075843918300,4.86091845703125,-0.9988861083984375,-0.021942138671875,0.0324859619140625
1782891075853940500,4.8709404296875,-1.0005340576171875,-0.02105712890625,0.0345001220703125
1782891075863962400,4.88096240234375,-1.001800537109375,-0.0205841064453125,0.0319061279296875
1782891075873984300,4.890984375,-1.001434326171875,-0.02130126953125,0.0321044921875
1782891075884006400,4.90100634765625,-1.00115966796875,-0.0210723876953125,0.0345001220703125
1782891075894028500,4.911028564453125,-1.0014495849609375,-0.02337646484375,0.033050537109375
1782891075904050400,4.921050537109375,-1.001434326171875,-0.022308349609375,0.0334014892578125
1782891075914072600,4.931072509765625,-1.0008392333984375,-0.0218353271484375,0.0335693359375
1782891075924094500,4.941094482421875,-1.0008392333984375,-0.0225677490234375,0.0346832275390625
1782891075934116400,4.951116455078125,-1.0018463134765625,-0.0226593017578125,0.03314208984375
1782891075944139500,4.961139404296875,-1.00030517578125,-0.02044677734375,0.0325469970703125
1782891075954161400,4.971161376953125,-1.00018310546875,-0.020538330078125,0.03350830078125
1782891075964183300,4.981183349609375,-1.000732421875,-0.0193328857421875,0.03253173828125
1782891075974205400,4.991205322265625,-1.00030517578125,-0.020111083984375,0.03277587890625
1782891075984227300,5.001227294921875,-0.999969482421875,-0.0210418701171875,0.0328826904296875
1782891075994249200,5.011249267578125,-1.0008697509765625,-0.0223846435546875,0.0324249267578125
1782891076004271600,5.021271728515625,-0.9998931884765625,-0.0207977294921875,0.033050537109375
1782891076014293500,5.03129345703125,-1.0003662109375,-0.0209808349609375,0.033233642578125
1782891076024315400,5.0413154296875,-0.9997100830078125,-0.0223388671875,0.0337066650390625
1782891076034337500,5.051337646484375,-1.0017547607421875,-0.021026611328125,0.0355377197265625
1782891076044359400,5.061359375,-1.00042724609375,-0.0205230712890625,0.0346527099609375
1782891076054381300,5.07138134765625,-0.9998779296875,-0.020965576171875,0.032867431640625
1782891076064403500,5.081403564453125,-1.0004425048828125,-0.021392822265625,0.032623291015625
1782891076074426400,5.09142626953125,-1.000701904296875,-0.021820068359375,0.033477783203125
1782891076084448300,5.1014482421875,-1.0013885498046875,-0.0222015380859375,0.033294677734375
1782891076094470400,5.111470458984375,-1.000762939453125,-0.02154541015625,0.0334930419921875
1782891076104492500,5.121492431640625,-0.9985198974609375,-0.021026611328125,0.033966064453125
1782891076114514400,5.131514404296875,-1.001983642578125,-0.0213165283203125,0.033203125
1782891076124536600,5.14153662109375,-1.00018310546875,-0.0213623046875,0.033538818359375
1782891076134558500,5.151558349609375,-1.000274658203125,-0.0203094482421875,0.0326385498046875
1782891076144580600,5.16158056640625,-1.0019989013671875,-0.0225372314453125,0.03143310546875
1782891076154602500,5.1716025390625,-1.0011138916015625,-0.021636962890625,0.03289794921875
1782891076164624400,5.181624267578125,-1.0010528564453125,-0.02191162109375,0.0330657958984375
1782891076174646500,5.191646484375,-1.001556396484375,-0.0213623046875,0.0338287353515625
1782891076184668400,5.20166845703125,-1.0003814697265625,-0.021148681640625,0.0350189208984375
1782891076194690600,5.211690673828125,-0.9990081787109375,-0.02069091796875,0.0348663330078125
1782891076204713500,5.22171337890625,-1.0018463134765625,-0.02239990234375,0.033660888671875
1782891076214735600,5.231735595703125,-0.9997406005859375,-0.022735595703125,0.033355712890625
1782891076224757500,5.241757568359375,-1.0008087158203125,-0.0216522216796875,0.0323333740234375
1782891076234779600,5.251779541015625,-1.0013275146484375,-0.021148681640625,0.03411865234375
1782891076244801500,5.261801513671875,-1.0000152587890625,-0.021636962890625,0.0348358154296875
1782891076254823400,5.271823486328125,-1.0009765625,-0.020477294921875,0.0332489013671875
1782891076264845600,5.281845458984375,-1.000701904296875,-0.021484375,0.0328216552734375
1782891076274867500,5.291867431640625,-1.0017242431640625,-0.02069091796875,0.032989501953125
1782891076284889300,5.301889404296875,-1.0019378662109375,-0.02154541015625,0.0340118408203125
1782891076294911700,5.311911865234375,-1.0001983642578125,-0.02203369140625,0.0322113037109375
1782891076304933600,5.32193359375,-1.0017852783203125,-0.0219268798828125,0.0344390869140625
1782891076314955500,5.33195556640625,-1.000518798828125,-0.020172119140625,0.03411865234375
1782891076324978700,5.341978759765625,-1.0002593994140625,-0.0216217041015625,0.0333099365234375
1782891076335000600,5.35200048828125,-1.0001068115234375,-0.0234527587890625,0.0329742431640625
1782891076345022500,5.3620224609375,-1.0001220703125,-0.0220794677734375,0.032958984375
1782891076355044600,5.372044677734375,-0.9994659423828125,-0.02166748046875,0.03326416015625
1782891076365066500,5.38206640625,-1.0004425048828125,-0.021087646484375,0.03271484375
1782891076375088400,5.39208837890625,-1.0004119873046875,-0.0204315185546875,0.0334014892578125
1782891076385110500,5.402110595703125,-1.0010528564453125,-0.0200042724609375,0.032318115234375
1782891076395132400,5.41213232421875,-1.0010528564453125,-0.0223846435546875,0.03192138671875
1782891076405154600,5.422154541015625,-1.0003204345703125,-0.0212860107421875,0.0343017578125
1782891076415176700,5.4321767578125,-0.9996490478515625,-0.0201873779296875,0.034698486328125
1782891076425198600,5.442198486328125,-1.0004119873046875,-0.0211944580078125,0.034576416015625
1782891076435220500,5.452220458984375,-0.9998931884765625,-0.02069091796875,0.034332275390625
1782891076445242600,5.46224267578125,-1.0002899169921875,-0.0218353271484375,0.0333709716796875
1782891076455265500,5.472265625,-0.9988250732421875,-0.0218963623046875,0.03424072265625
1782891076465287400,5.482287353515625,-1.0010528564453125,-0.0218353271484375,0.0329132080078125
1782891076475309600,5.4923095703125,-0.9993743896484375,-0.021331787109375,0.0351409912109375
1782891076485331500,5.50233154296875,-1.0009307861328125,-0.0224151611328125,0.03497314453125
1782891076495353300,5.512353271484375,-1.0006866455078125,-0.0203094482421875,0.033782958984375
1782891076505375700,5.522375732421875,-1.0019989013671875,-0.021148681640625,0.032257080078125
1782891076515397600,5.532397705078125,-1.002227783203125,-0.0210418701171875,0.03350830078125
1782891076525419500,5.54241943359375,-0.9998779296875,-0.0213775634765625,0.0335693359375
1782891076535441700,5.552441650390625,-1.0006866455078125,-0.020233154296875,0.03399658203125
1782891076545463600,5.562463623046875,-1.000274658203125,-0.0204925537109375,0.0342864990234375
1782891076555485400,5.5724853515625,-1.0006866455078125,-0.022552490234375,0.0336761474609375
1782891076565507600,5.582507568359375,-1.0001983642578125,-0.021820068359375,0.03472900390625
1782891076575530500,5.592530517578125,-1.0002899169921875,-0.0214385986328125,0.0331268310546875
1782891076585552400,5.602552490234375,-0.999176025390625,-0.0207366943359375,0.0323944091796875
1782891076595574500,5.612574462890625,-1.0001373291015625,-0.021453857421875,0.032318115234375
1782891076605596400,5.622596435546875,-1.0007781982421875,-0.02093505859375,0.0325469970703125
1782891076615618600,5.63261865234375,-1.0010223388671875,-0.020904541015625,0.0329132080078125
1782891076625640700,5.642640625,-0.9999847412109375,-0.021728515625,0.032257080078125
1782891076635662600,5.65266259765625,-1.0002593994140625,-0.021331787109375,0.0330963134765625
1782891076645684500,5.6626845703125,-0.9995269775390625,-0.020477294921875,0.03387451171875
1782891076655706600,5.67270654296875,-1.001007080078125,-0.019683837890625,0.0337066650390625
1782891076665728500,5.682728515625,-1.0003204345703125,-0.0201263427734375,0.0327301025390625
1782891076675750400,5.69275048828125,-1.0009307861328125,-0.022216796875,0.034454345703125
1782891076685772500,5.7027724609375,-1.0008392333984375,-0.0211944580078125,0.0329437255859375
1782891076695794700,5.712794677734375,-1.002288818359375,-0.0216064453125,0.033782958984375
1782891076705817300,5.7228173828125,-1.0031585693359375,-0.0204620361328125,0.0321502685546875
1782891076715839700,5.73283984375,-0.9999237060546875,-0.021270751953125,0.0334014892578125
1782891076725861600,5.742861572265625,-1.000823974609375,-0.021636962890625,0.0340423583984375
1782891076735883500,5.752883544921875,-0.9991912841796875,-0.021453857421875,0.032958984375
1782891076745905700,5.76290576171875,-1.0012664794921875,-0.0207977294921875,0.03277587890625
1782891076755927600,5.772927490234375,-1.002288818359375,-0.0213470458984375,0.0333251953125
1782891076765949400,5.782949462890625,-1.00048828125,-0.02252197265625,0.033447265625
1782891076775971600,5.7929716796875,-1.0009765625,-0.0223388671875,0.0323638916015625
1782891076785993500,5.802993408203125,-1.0018310546875,-0.0216827392578125,0.03326416015625
1782891076796015600,5.813015625,-1.001434326171875,-0.020172119140625,0.032379150390625
1782891076806037500,5.82303759765625,-0.999755859375,-0.0202178955078125,0.0336456298828125
1782891076816059600,5.8330595703125,-0.99993896484375,-0.020599365234375,0.0340576171875
1782891076826081500,5.84308154296875,-0.999908447265625,-0.020111083984375,0.0332183837890625
1782891076836104700,5.853104736328125,-0.9999542236328125,-0.0211029052734375,0.0332183837890625
1782891076846126600,5.863126708984375,-1.0004425048828125,-0.0211639404296875,0.0343780517578125
1782891076856148500,5.8731484375,-0.9995269775390625,-0.02166748046875,0.0328369140625
1782891076866170600,5.883170654296875,-1.002105712890625,-0.02081298828125,0.0318603515625
1782891076876192500,5.893192626953125,-1.000152587890625,-0.0200653076171875,0.0331268310546875
1782891076886214400,5.90321435546875,-1.00128173828125,-0.021484375,0.0325927734375
1782891076896236500,5.913236572265625,-1.0017547607421875,-0.0207366943359375,0.032867431640625
1782891076906258700,5.9232587890625,-1.0010528564453125,-0.020111083984375,0.0333404541015625
1782891076916280600,5.933280517578125,-0.9998626708984375,-0.0208892822265625,0.0341033935546875
1782891076926302500,5.943302490234375,-1.0006103515625,-0.0209503173828125,0.0347747802734375
1782891076936324600,5.95332470703125,-1.000640869140625,-0.0217742919921875,0.0334014892578125
1782891076946346500,5.963346435546875,-0.99993896484375,-0.0218963623046875,0.0323486328125
1782891076956369700,5.97336962890625,-0.9998931884765625,-0.02166748046875,0.03460693359375
1782891076966391600,5.9833916015625,-1.0001220703125,-0.0210418701171875,0.033294677734375
1782891076976413400,5.993413330078125,-1.0006256103515625,-0.0216064453125,0.034820556640625
1782891076986435600,6.003435546875,-1.002105712890625,-0.0216064453125,0.03460693359375
1782891076996457500,6.01345751953125,-1.0007476806640625,-0.0207061767578125,0.0340118408203125
1782891077006479600,6.023479736328125,-1.0013580322265625,-0.019805908203125,0.033538818359375
1782891077016501500,6.03350146484375,-0.99981689453125,-0.020782470703125,0.0326690673828125
1782891077026523600,6.043523681640625,-0.9992523193359375,-0.021484375,0.0332794189453125
1782891077036545500,6.053545654296875,-0.9987945556640625,-0.0212249755859375,0.03375244140625
1782891077046567400,6.0635673828125,-1.000396728515625,-0.0214996337890625,0.0329437255859375
1782891077056589600,6.073589599609375,-1.0013427734375,-0.0202789306640625,0.0338592529296875
1782891077066611500,6.083611572265625,-1.0014801025390625,-0.0222930908203125,0.0345611572265625
1782891077076633300,6.09363330078125,-1.0005035400390625,-0.022247314453125,0.0328216552734375
1782891077086656500,6.103656494140625,-1.0011749267578125,-0.021331787109375,0.0334930419921875
1782891077096678400,6.113678466796875,-1.000213623046875,-0.0206298828125,0.034423828125
1782891077106700500,6.123700439453125,-1.00213623046875,-0.020904541015625,0.0330047607421875
1782891077116722700,6.13372265625,-1.000396728515625,-0.0217742919921875,0.032806396484375
1782891077126744600,6.14374462890625,-1.000946044921875,-0.0208740234375,0.0341339111328125
1782891077136766700,6.1537666015625,-0.99993896484375,-0.01922607421875,0.0336761474609375
1782891077146788600,6.16378857421875,-1.000701904296875,-0.020477294921875,0.035308837890625
1782891077156810500,6.173810546875,-1.00048828125,-0.0228118896484375,0.0327606201171875
1782891077166832600,6.18383251953125,-1.0011138916015625,-0.0211181640625,0.0338134765625
1782891077176854500,6.1938544921875,-1.0023193359375,-0.0218658447265625,0.0336761474609375
1782891077186876400,6.20387646484375,-1.001556396484375,-0.02142333984375,0.0336151123046875
1782891077196898800,6.21389892578125,-1.001495361328125,-0.0211029052734375,0.031646728515625
1782891077206921500,6.22392138671875,-1.00115966796875,-0.0206146240234375,0.034271240234375
1782891077216943600,6.233943603515625,-1.000335693359375,-0.021942138671875,0.034149169921875
1782891077226965800,6.2439658203125,-1.0004119873046875,-0.0226898193359375,0.0307159423828125
1782891077236987600,6.253987548828125,-1.0007171630859375,-0.021728515625,0.033294677734375
1782891077247009500,6.264009521484375,-1.000457763671875,-0.0218048095703125,0.034454345703125
1782891077257031700,6.27403173828125,-1.0005340576171875,-0.0207366943359375,0.0333404541015625
1782891077267053600,6.284053466796875,-1.0001220703125,-0.0217132568359375,0.0316314697265625
1782891077277075500,6.294075439453125,-0.9995574951171875,-0.0199432373046875,0.03350830078125
1782891077287097600,6.30409765625,-1.0008087158203125,-0.02008056640625,0.0340728759765625
1782891077297119700,6.31411962890625,-1.000579833984375,-0.02154541015625,0.032867431640625
1782891077307141600,6.3241416015625,-0.9998779296875,-0.021240234375,0.03472900390625
1782891077317163800,6.334163818359375,-0.9998016357421875,-0.0210723876953125,0.0330810546875
1782891077327186700,6.344186767578125,-1.0006866455078125,-0.021148681640625,0.0321197509765625
1782891077337208600,6.35420849609375,-1.0025787353515625,-0.0211181640625,0.032745361328125
1782891077347230700,6.364230712890625,-1.0014190673828125,-0.0218353271484375,0.032257080078125
1782891077357252600,6.374252685546875,-1.000274658203125,-0.0214385986328125,0.0326385498046875
1782891077367274500,6.3842744140625,-0.99932861328125,-0.0220947265625,0.0334320068359375
1782891077377296600,6.394296630859375,-1.0008544921875,-0.021331787109375,0.0337982177734375
1782891077387318500,6.404318603515625,-1.0011444091796875,-0.022125244140625,0.034027099609375
1782891077397340400,6.41434033203125,-1.0015411376953125,-0.020660400390625,0.033050537109375
1782891077407362800,6.42436279296875,-1.0008087158203125,-0.0199127197265625,0.03265380859375
1782891077417384700,6.434384765625,-1.0005645751953125,-0.0218048095703125,0.0347747802734375
1782891077427406600,6.444406494140625,-1.001373291015625,-0.0207977294921875,0.0335540771484375
1782891077437428700,6.4544287109375,-0.9996337890625,-0.021087646484375,0.033782958984375
1782891077447450600,6.46445068359375,-1.000885009765625,-0.021087646484375,0.03607177734375
1782891077457473500,6.4744736328125,-1.00067138671875,-0.0210418701171875,0.0345611572265625
1782891077467495700,6.48449560546875,-1.0011444091796875,-0.02020263671875,0.0319976806640625
1782891077477517600,6.494517578125,-1.00152587890625,-0.0211334228515625,0.0319061279296875
1782891077487539500,6.50453955078125,-1.00030517578125,-0.0213623046875,0.0343780517578125
1782891077497561600,6.5145615234375,-1.0005645751953125,-0.0225067138671875,0.033447265625
1782891077507583700,6.524583740234375,-1.00048828125,-0.02276611328125,0.03265380859375
1782891077517605600,6.534605712890625,-1.000762939453125,-0.0199432373046875,0.0335845947265625
1782891077527627800,6.544627685546875,-0.9998321533203125,-0.021331787109375,0.034271240234375
1782891077537649700,6.554649658203125,-1.000396728515625,-0.0205230712890625,0.0349884033203125
1782891077547671600,6.564671630859375,-1.0008697509765625,-0.0207977294921875,0.0346221923828125
1782891077557693700,6.574693603515625,-1.0003814697265625,-0.020751953125,0.0347137451171875
1782891077567715600,6.584715576171875,-1.0013427734375,-0.02099609375,0.0331573486328125
1782891077577737500,6.594737548828125,-1.00164794921875,-0.0220184326171875,0.033294677734375
1782891077587760600,6.6047607421875,-1.0003204345703125,-0.0208892822265625,0.0324859619140625
1782891077597782500,6.614782470703125,-1.001708984375,-0.0218963623046875,0.0327301025390625
1782891077607804400,6.624804443359375,-1.0015869140625,-0.021331787109375,0.0318145751953125
1782891077617826800,6.634826904296875,-1.0003814697265625,-0.0208740234375,0.03240966796875
1782891077627848700,6.6448486328125,-0.9998931884765625,-0.020172119140625,0.0336761474609375
1782891077637870600,6.65487060546875,-0.9994964599609375,-0.0220489501953125,0.0339813232421875
1782891077647892700,6.664892822265625,-0.9999237060546875,-0.0215301513671875,0.033660888671875
1782891077657914600,6.67491455078125,-0.999725341796875,-0.020721435546875,0.032928466796875
1782891077667936500,6.6849365234375,-1.000732421875,-0.0206451416015625,0.0320587158203125
1782891077677958700,6.694958740234375,-1.0013275146484375,-0.0208587646484375,0.033905029296875
1782891077687980500,6.70498046875,-1.0012664794921875,-0.0225982666015625,0.0334625244140625
1782891077698002700,6.715002685546875,-1.001708984375,-0.0222930908203125,0.0326080322265625
1782891077708024800,6.72502490234375,-1.0001983642578125,-0.0197601318359375,0.032440185546875
1782891077718047700,6.7350478515625,-1.0005035400390625,-0.0205535888671875,0.032867431640625
1782891077728069600,6.745069580078125,-1.000244140625,-0.022552490234375,0.0326385498046875
1782891077738091800,6.755091796875,-1.0005950927734375,-0.0218353271484375,0.0323333740234375
1782891077748113700,6.76511376953125,-0.999755859375,-0.0204315185546875,0.0330657958984375
1782891077758135600,6.775135498046875,-0.9990081787109375,-0.021697998046875,0.0317230224609375
1782891077768157700,6.78515771484375,-1.00079345703125,-0.02239990234375,0.0321502685546875
1782891077778179600,6.7951796875,-1.0014190673828125,-0.0212249755859375,0.03326416015625
1782891077788201500,6.805201416015625,-1.00079345703125,-0.0208892822265625,0.0322723388671875
1782891077798223600,6.8152236328125,-0.9997406005859375,-0.019927978515625,0.0329132080078125
1782891077808245800,6.825245849609375,-1.000732421875,-0.0221710205078125,0.0334930419921875
1782891077818267600,6.835267578125,-1.0013427734375,-0.0214080810546875,0.0333251953125
1782891077828289500,6.84528955078125,-1.0015411376953125,-0.0213165283203125,0.0326080322265625
1782891077838312700,6.855312744140625,-0.999969482421875,-0.0211029052734375,0.032623291015625
1782891077848334600,6.86533447265625,-1.0006866455078125,-0.0218353271484375,0.0336151123046875
1782891077858356700,6.875356689453125,-0.999420166015625,-0.0212860107421875,0.0342864990234375
1782891077868378600,6.885378662109375,-1.000518798828125,-0.0220794677734375,0.0333709716796875
1782891077878400500,6.895400390625,-1.000457763671875,-0.020751953125,0.034698486328125
1782891077888422700,6.905422607421875,-1.000457763671875,-0.02081298828125,0.03607177734375
1782891077898444500,6.915444580078125,-1.00103759765625,-0.0212860107421875,0.033233642578125
1782891077908466700,6.925466796875,-1.000091552734375,-0.021270751953125,0.03179931640625
1782891077918488800,6.93548876953125,-1.001434326171875,-0.0216064453125,0.0341796875
1782891077928510700,6.9455107421875,-1.0007781982421875,-0.022003173828125,0.0346527099609375
1782891077938532600,6.95553271484375,-1.0006103515625,-0.0209197998046875,0.03265380859375
1782891077948554500,6.965554443359375,-0.999542236328125,-0.0207977294921875,0.03240966796875
1782891077958577700,6.97557763671875,-1.0004119873046875,-0.02166748046875,0.03216552734375
1782891077968599600,6.985599609375,-1.001556396484375,-0.0208892822265625,0.03289794921875
1782891077978621700,6.99562158203125,-1.0007171630859375,-0.0195770263671875,0.032562255859375
1782891077988643600,7.0056435546875,-1.00018310546875,-0.0204620361328125,0.03277587890625
1782891077998665500,7.01566552734375,-1.0011444091796875,-0.0204925537109375,0.0319671630859375
1782891078008687600,7.0256875,-1.000946044921875,-0.02154541015625,0.0329437255859375
1782891078018709800,7.035709716796875,-1.0004730224609375,-0.0208740234375,0.033905029296875
1782891078028731600,7.045731689453125,-1.000030517578125,-0.0226898193359375,0.0323028564453125
1782891078038753500,7.05575341796875,-1.001800537109375,-0.021270751953125,0.033966064453125
1782891078048775700,7.065775634765625,-1.0007781982421875,-0.021697998046875,0.0341033935546875
1782891078058797600,7.075797607421875,-1.0008087158203125,-0.0217132568359375,0.0328369140625
1782891078068819500,7.0858193359375,-1.0008087158203125,-0.0196533203125,0.032135009765625
1782891078078841600,7.095841552734375,-0.9999847412109375,-0.0205078125,0.03387451171875
1782891078088864500,7.105864501953125,-1.0016326904296875,-0.02056884765625,0.032958984375
1782891078098886700,7.11588671875,-1.0011138916015625,-0.021697998046875,0.0318603515625
1782891078108908500,7.125908447265625,-1.0009765625,-0.021636962890625,0.033477783203125
1782891078118930700,7.1359306640625,-0.9996337890625,-0.0217742919921875,0.03350830078125
1782891078128952600,7.14595263671875,-1.0003814697265625,-0.0207672119140625,0.033599853515625
1782891078138974500,7.155974365234375,-0.9998779296875,-0.020843505859375,0.0332489013671875
1782891078148996600,7.16599658203125,-1.0009765625,-0.020599365234375,0.0341949462890625
1782891078159018500,7.1760185546875,-1.0007171630859375,-0.0194244384765625,0.0327606201171875
1782891078169040400,7.186040283203125,-1.00054931640625,-0.0198974609375,0.032318115234375
1782891078179062500,7.1960625,-1,-0.0210418701171875,0.0334320068359375
1782891078189084400,7.20608447265625,-0.9996185302734375,-0.0203094482421875,0.0330657958984375
1782891078199106600,7.2161064453125,-1.001251220703125,-0.0222625732421875,0.0335693359375
1782891078209128700,7.226128662109375,-1.000396728515625,-0.0212249755859375,0.032440185546875
1782891078219151600,7.236151611328125,-1.001129150390625,-0.021453857421875,0.032135009765625
1782891078229173500,7.246173583984375,-1.0024261474609375,-0.0217437744140625,0.03271484375
1782891078239195600,7.256195556640625,-1.00146484375,-0.0213775634765625,0.033050537109375
1782891078249217500,7.266217529296875,-0.9998016357421875,-0.02020263671875,0.0325775146484375
1782891078259239400,7.276239501953125,-1.0008392333984375,-0.020538330078125,0.0327606201171875
1782891078269261600,7.286261474609375,-0.999603271484375,-0.0214385986328125,0.0327911376953125
1782891078279283500,7.296283447265625,-0.9999237060546875,-0.0198211669921875,0.03387451171875
1782891078289305300,7.306305419921875,-1.0015411376953125,-0.0219268798828125,0.03411865234375
1782891078299327500,7.316327392578125,-1.0011138916015625,-0.021728515625,0.0347137451171875
1782891078309349600,7.326349609375,-1.000030517578125,-0.021240234375,0.03271484375
1782891078319371500,7.33637158203125,-1.000274658203125,-0.021209716796875,0.03265380859375
1782891078329393400,7.346393310546875,-1.0026702880859375,-0.0208282470703125,0.0334320068359375
1782891078339415600,7.35641552734375,-1.002197265625,-0.0213165283203125,0.0329437255859375
1782891078349438500,7.3664384765625,-1.0001220703125,-0.022918701171875,0.0346221923828125
1782891078359460600,7.376460693359375,-1.00042724609375,-0.02117919921875,0.0330963134765625
1782891078369482500,7.386482421875,-1.00048828125,-0.0229339599609375,0.0332794189453125
1782891078379504400,7.39650439453125,-1.0004119873046875,-0.0211029052734375,0.032379150390625
1782891078389526500,7.406526611328125,-1.0011749267578125,-0.0216064453125,0.0333709716796875
1782891078399548400,7.41654833984375,-1.0009918212890625,-0.02099609375,0.0331878662109375
1782891078409570600,7.426570556640625,-1.00006103515625,-0.0208740234375,0.0325775146484375
1782891078419592700,7.4365927734375,-0.999786376953125,-0.0216217041015625,0.033660888671875
1782891078429614600,7.446614501953125,-1.0011749267578125,-0.02105712890625,0.0332183837890625
1782891078439636500,7.456636474609375,-1.0013580322265625,-0.02154541015625,0.033935546875
1782891078449658400,7.466658447265625,-0.9999847412109375,-0.0214080810546875,0.032989501953125
1782891078459680500,7.476680419921875,-1.0006866455078125,-0.020660400390625,0.032135009765625
1782891078469703400,7.486703369140625,-1.0005645751953125,-0.020965576171875,0.0331573486328125
1782891078479725600,7.4967255859375,-1.00152587890625,-0.0218658447265625,0.0318756103515625
1782891078489747500,7.50674755859375,-1.0013580322265625,-0.0203399658203125,0.033660888671875
1782891078499769300,7.516769287109375,-1.00128173828125,-0.021240234375,0.0323486328125
1782891078509791500,7.52679150390625,-1.00152587890625,-0.0200347900390625,0.032928466796875
1782891078519813600,7.536813720703125,-1.000946044921875,-0.02191162109375,0.03387451171875
1782891078529835500,7.54683544921875,-1.0024566650390625,-0.0212554931640625,0.034332275390625
1782891078539857400,7.556857421875,-0.9997711181640625,-0.0222320556640625,0.03350830078125
1782891078549879600,7.566879638671875,-0.9993896484375,-0.0206451416015625,0.0326385498046875
1782891078559901400,7.5769013671875,-1.0013427734375,-0.02252197265625,0.0335693359375
1782891078569923300,7.58692333984375,-1.0016021728515625,-0.021575927734375,0.032989501953125
1782891078579945500,7.596945556640625,-1.0005950927734375,-0.020965576171875,0.03265380859375
1782891078589967600,7.606967529296875,-0.999908447265625,-0.0201263427734375,0.0328826904296875
1782891078599990500,7.616990478515625,-1.0002899169921875,-0.021484375,0.033172607421875
1782891078610012400,7.627012451171875,-1.00030517578125,-0.02154541015625,0.03289794921875
1782891078620034600,7.63703466796875,-1.0010223388671875,-0.0207977294921875,0.03350830078125
1782891078630056400,7.647056396484375,-1.00006103515625,-0.02056884765625,0.032440185546875
1782891078640078600,7.65707861328125,-1.00006103515625,-0.0216064453125,0.0327606201171875
1782891078650100500,7.6671005859375,-1.001861572265625,-0.022613525390625,0.0321044921875
1782891078660122400,7.677122314453125,-1.00146484375,-0.021728515625,0.03338623046875
1782891078670144500,7.68714453125,-1.00018310546875,-0.02008056640625,0.0350799560546875
1782891078680166400,7.69716650390625,-1.0006866455078125,-0.0220794677734375,0.0346832275390625
1782891078690188300,7.707188232421875,-1.0025482177734375,-0.0218658447265625,0.0339813232421875
1782891078700210700,7.717210693359375,-1.000274658203125,-0.0214080810546875,0.0342559814453125
1782891078710232600,7.727232666015625,-1.000335693359375,-0.02008056640625,0.0343475341796875
1782891078720255500,7.73725537109375,-0.999237060546875,-0.02044677734375,0.0337982177734375
1782891078730277600,7.747277587890625,-0.9995880126953125,-0.0211334228515625,0.031280517578125
1782891078740299500,7.757299560546875,-0.999603271484375,-0.0220489501953125,0.0341796875
1782891078750321400,7.7673212890625,-0.9997406005859375,-0.021148681640625,0.03363037109375
1782891078760343600,7.777343505859375,-1.0019378662109375,-0.0195159912109375,0.0336761474609375
1782891078770365400,7.787365478515625,-1.0009307861328125,-0.020843505859375,0.03350830078125
1782891078780387300,7.79738720703125,-1.00091552734375,-0.0215301513671875,0.034423828125
1782891078790409500,7.807409423828125,-1.000152587890625,-0.0216522216796875,0.033538818359375
1782891078800431600,7.817431640625,-0.9998626708984375,-0.0201568603515625,0.0321502685546875
1782891078810453500,7.82745361328125,-1.00152587890625,-0.020751953125,0.0330352783203125
1782891078820475600,7.8374755859375,-1.0005645751953125,-0.021209716796875,0.03338623046875
1782891078830497500,7.84749755859375,-1.0003509521484375,-0.0216064453125,0.034332275390625
1782891078840519400,7.85751953125,-1.0003662109375,-0.0216217041015625,0.033935546875
1782891078850542600,7.86754248046875,-1.0013885498046875,-0.0213165283203125,0.032196044921875
1782891078860564500,7.877564453125,-1.000885009765625,-0.0206298828125,0.0328216552734375
1782891078870586400,7.88758642578125,-1.000335693359375,-0.02166748046875,0.034332275390625
1782891078880608500,7.8976083984375,-1.0008392333984375,-0.0207061767578125,0.032379150390625
1782891078890630400,7.90763037109375,-1.0007476806640625,-0.020904541015625,0.0329132080078125
1782891078900650500,7.917650390625,-1.0024871826171875,-0.0216522216796875,0.032806396484375
1782891078910672400,7.92767236328125,-1.001708984375,-0.02099609375,0.0354461669921875
1782891078920694500,7.937694580078125,-0.9998626708984375,-0.0198516845703125,0.0330352783203125
1782891078930716400,7.94771630859375,-1.0010986328125,-0.020599365234375,0.0325927734375
1782891078940738600,7.957738525390625,-0.9994964599609375,-0.02130126953125,0.0344085693359375
1782891078950760700,7.9677607421875,-1.0015106201171875,-0.0217742919921875,0.0334625244140625
1782891078960782600,7.977782470703125,-1.000640869140625,-0.0209197998046875,0.0346221923828125
1782891078970804500,7.987804443359375,-1.0012054443359375,-0.0208740234375,0.0333709716796875
1782891078980826600,7.99782666015625,-1.000091552734375,-0.02093505859375,0.03369140625
1782891078990848500,8.0078486328125,-1.0012359619140625,-0.0216064453125,0.033111572265625
1782891079000870400,8.017870361328125,-1.0010223388671875,-0.022003173828125,0.0330047607421875
1782891079010893600,8.0278935546875,-1.000885009765625,-0.0214691162109375,0.034332275390625
1782891079020915500,8.03791552734375,-1.0009613037109375,-0.02142333984375,0.0341796875
1782891079030937300,8.047937255859376,-1,-0.021759033203125,0.03277587890625
1782891079040959500,8.05795947265625,-1.00018310546875,-0.0221099853515625,0.033660888671875
1782891079050981600,8.067981689453125,-1.0000457763671875,-0.0216522216796875,0.0328521728515625
1782891079061003500,8.07800341796875,-0.9996337890625,-0.0210418701171875,0.034271240234375
1782891079071025700,8.088025634765625,-1.0020751953125,-0.0213775634765625,0.0330352783203125
1782891079081047600,8.098047607421876,-1.001617431640625,-0.021575927734375,0.03424072265625
1782891079091069400,8.1080693359375,-0.999603271484375,-0.02099609375,0.03314208984375
1782891079101091300,8.11809130859375,-0.9992218017578125,-0.02117919921875,0.033721923828125
1782891079111113500,8.128113525390624,-1.001983642578125,-0.02117919921875,0.0323333740234375
1782891079121135400,8.13813525390625,-1.00079345703125,-0.0205841064453125,0.03485107421875
1782891079131158500,8.148158447265626,-0.99951171875,-0.02178955078125,0.0335693359375
1782891079141181200,8.15818115234375,-0.9996185302734375,-0.02130126953125,0.0331268310546875
1782891079151203000,8.168203125,-1.0013885498046875,-0.021942138671875,0.03399658203125
1782891079161225200,8.17822509765625,-1.0013580322265625,-0.022216796875,0.033966064453125
1782891079171247400,8.188247314453125,-1.000457763671875,-0.021453857421875,0.032623291015625
1782891079181269200,8.198269287109374,-1.001129150390625,-0.0214691162109375,0.032684326171875
1782891079191291400,8.20829150390625,-0.99847412109375,-0.0201416015625,0.0351104736328125
1782891079201313300,8.218313232421876,-1.000457763671875,-0.020843505859375,0.033477783203125
1782891079211335200,8.228335205078125,-1.000885009765625,-0.0217437744140625,0.031890869140625
1782891079221357300,8.238357421875,-1.0009765625,-0.0210723876953125,0.0322723388671875
1782891079231379200,8.248379150390624,-1.000946044921875,-0.020355224609375,0.0334320068359375
1782891079241401000,8.258401123046875,-1.000335693359375,-0.0214385986328125,0.033294677734375
1782891079251423200,8.26842333984375,-1.0004425048828125,-0.021392822265625,0.033203125
1782891079261446100,8.278446044921875,-1.0004425048828125,-0.02032470703125,0.0330963134765625
1782891079271468300,8.28846826171875,-1.0002593994140625,-0.0210723876953125,0.0335693359375
1782891079281491200,8.2984912109375,-1.00054931640625,-0.0218353271484375,0.0345611572265625
1782891079291513000,8.30851318359375,-0.999114990234375,-0.01995849609375,0.034759521484375
1782891079301535500,8.318535400390624,-1.001220703125,-0.020751953125,0.03326416015625
1782891079311557400,8.328557373046875,-1.0010833740234375,-0.0206146240234375,0.0311431884765625
1782891079321580300,8.338580322265624,-1.000152587890625,-0.0220794677734375,0.0340728759765625
1782891079331602400,8.3486025390625,-1.0022735595703125,-0.0206451416015625,0.033966064453125
1782891079341624300,8.358624267578126,-1.0012969970703125,-0.020263671875,0.0322265625
1782891079351646200,8.368646240234375,-0.9998779296875,-0.0208587646484375,0.032745361328125
1782891079361668400,8.37866845703125,-1.0003204345703125,-0.0213623046875,0.032196044921875
1782891079371690200,8.388690185546874,-1.000701904296875,-0.022247314453125,0.0338287353515625
1782891079381712100,8.398712158203125,-1.0009613037109375,-0.021148681640625,0.034454345703125
1782891079391734300,8.408734375,-0.9996337890625,-0.02056884765625,0.034454345703125
1782891079401756200,8.418756103515625,-1.000030517578125,-0.0213623046875,0.032135009765625
1782891079411778300,8.4287783203125,-0.999725341796875,-0.02178955078125,0.0328369140625
1782891079421800200,8.43880029296875,-1.0018768310546875,-0.0212554931640625,0.03326416015625
1782891079431822300,8.448822265625,-1.0002899169921875,-0.022613525390625,0.0331573486328125
1782891079441845200,8.45884521484375,-1.0012359619140625,-0.0213623046875,0.0323333740234375
1782891079451867400,8.468867431640625,-1.001190185546875,-0.02105712890625,0.0328826904296875
1782891079461889300,8.47888916015625,-1.0004119873046875,-0.0212860107421875,0.0345458984375
1782891079471911200,8.4889111328125,-1.0000457763671875,-0.0234832763671875,0.0341339111328125
1782891079481933300,8.498933349609375,-0.99969482421875,-0.0222625732421875,0.0326080322265625
1782891079491955200,8.508955078125,-1.001556396484375,-0.0204925537109375,0.033935546875
1782891079501977000,8.51897705078125,-1.0019378662109375,-0.0205078125,0.0330047607421875
1782891079511999500,8.52899951171875,-1.0005950927734375,-0.02130126953125,0.034912109375
1782891079522021400,8.539021484375,-1.000244140625,-0.0222015380859375,0.0336456298828125
1782891079532043300,8.549043212890625,-1.000946044921875,-0.0200042724609375,0.03277587890625
1782891079542065200,8.559065185546874,-1.0009918212890625,-0.0215301513671875,0.03338623046875
1782891079552087300,8.56908740234375,-1.0015411376953125,-0.0221710205078125,0.03338623046875
1782891079562110200,8.579110107421876,-1.001220703125,-0.0216827392578125,0.033233642578125
1782891079572132400,8.58913232421875,-1.0013885498046875,-0.0214691162109375,0.0340423583984375
1782891079582154200,8.599154296875,-1.002227783203125,-0.0212554931640625,0.034149169921875
1782891079592176000,8.609176025390624,-1.0013885498046875,-0.020233154296875,0.033447265625
1782891079602198300,8.6191982421875,-1.00103759765625,-0.02117919921875,0.0325775146484375
1782891079612220200,8.62922021484375,-0.9998931884765625,-0.021240234375,0.0347137451171875
1782891079622242300,8.6392421875,-1.000518798828125,-0.0206146240234375,0.0342559814453125
1782891079632264200,8.64926416015625,-1.0007476806640625,-0.021759033203125,0.034210205078125
1782891079642286300,8.659286376953125,-1.000762939453125,-0.0219268798828125,0.0341644287109375
1782891079652308200,8.66930810546875,-0.9996795654296875,-0.0207672119140625,0.03369140625
1782891079662330000,8.679330078125,-1.0013275146484375,-0.0205078125,0.032745361328125
1782891079672352300,8.689352294921875,-0.9998016357421875,-0.0205841064453125,0.03338623046875
1782891079682374100,8.6993740234375,-0.9985198974609375,-0.0205841064453125,0.0333099365234375
1782891079692397300,8.709397216796875,-1.00067138671875,-0.0210723876953125,0.0318756103515625
1782891079702419200,8.719419189453125,-1.0006561279296875,-0.020782470703125,0.0327606201171875
1782891079712441000,8.729441162109374,-1.002960205078125,-0.0219573974609375,0.032135009765625
1782891079722463500,8.73946337890625,-1.002105712890625,-0.0213623046875,0.0330047607421875
1782891079732485400,8.7494853515625,-1.0012054443359375,-0.0216217041015625,0.0346527099609375
1782891079742507300,8.75950732421875,-1.0012359619140625,-0.0213165283203125,0.0335540771484375
1782891079752529200,8.769529052734375,-1.001617431640625,-0.0209197998046875,0.0312347412109375
1782891079762551300,8.77955126953125,-1.0007781982421875,-0.0204620361328125,0.0334625244140625
1782891079772573200,8.7895732421875,-1.0010528564453125,-0.0211639404296875,0.0327911376953125
1782891079782595000,8.799594970703126,-1.0012969970703125,-0.021881103515625,0.034271240234375
1782891079792617200,8.8096171875,-1.0013580322265625,-0.0222625732421875,0.03216552734375
1782891079802639400,8.819639404296876,-0.9994049072265625,-0.0201873779296875,0.0320892333984375
1782891079812662300,8.829662353515625,-1.0020294189453125,-0.0210113525390625,0.0332489013671875
1782891079822684400,8.839684326171875,-1.0016937255859375,-0.0222930908203125,0.032867431640625
1782891079832706300,8.849706298828124,-1.00048828125,-0.0220947265625,0.03363037109375
1782891079842728200,8.859728271484375,-1.0007171630859375,-0.021881103515625,0.0330657958984375
1782891079852750300,8.869750244140626,-1.0006103515625,-0.02154541015625,0.0343017578125
1782891079862772200,8.879772216796875,-1.00067138671875,-0.021697998046875,0.03338623046875
1782891079872794000,8.889794189453125,-1.001129150390625,-0.0212554931640625,0.0332489013671875
1782891079882816300,8.899816162109374,-1.0006103515625,-0.022491455078125,0.0335845947265625
1782891079892838100,8.909838134765625,-0.998992919921875,-0.021392822265625,0.0350189208984375
1782891079902860300,8.9198603515625,-1.000274658203125,-0.0213165283203125,0.0325927734375
1782891079912882400,8.92988232421875,-1.000823974609375,-0.020904541015625,0.031768798828125
1782891079922904300,8.939904296875,-1.001922607421875,-0.0214080810546875,0.033447265625
1782891079932926200,8.94992626953125,-1.0016632080078125,-0.020294189453125,0.0330047607421875
1782891079942949400,8.959949462890625,-1.001861572265625,-0.02056884765625,0.0351409912109375
1782891079952971300,8.96997119140625,-1.0004730224609375,-0.021331787109375,0.033447265625
1782891079962993200,8.9799931640625,-1.0017547607421875,-0.0216522216796875,0.0338592529296875
1782891079973015300,8.990015380859376,-0.99993896484375,-0.0204315185546875,0.0321807861328125
1782891079983037200,9.000037109375,-1.001434326171875,-0.0216064453125,0.0326690673828125
1782891079993059000,9.01005908203125,-1.0006561279296875,-0.0213165283203125,0.0325927734375
1782891080003081200,9.020081298828124,-1.000152587890625,-0.02276611328125,0.0321502685546875
1782891080013103400,9.030103271484375,-1.000823974609375,-0.0208892822265625,0.033660888671875
1782891080023125200,9.040125244140626,-1.0009918212890625,-0.02203369140625,0.0333709716796875
1782891080033147400,9.0501474609375,-1.0008697509765625,-0.0218048095703125,0.0320281982421875
1782891080043169300,9.060169189453125,-0.999847412109375,-0.0216522216796875,0.0338592529296875
1782891080053191200,9.070191162109374,-1.00091552734375,-0.02008056640625,0.0354156494140625
1782891080063214300,9.08021435546875,-1.0004730224609375,-0.021087646484375,0.031524658203125
1782891080073236200,9.090236328125,-1.001434326171875,-0.0225372314453125,0.033355712890625
1782891080083258000,9.100258056640625,-1.0014801025390625,-0.0208892822265625,0.0333251953125
1782891080093280300,9.1102802734375,-1.0009765625,-0.0204315185546875,0.0339202880859375
1782891080103302100,9.12030224609375,-1.0008544921875,-0.0207672119140625,0.03338623046875
1782891080113324300,9.13032421875,-1.0007476806640625,-0.0200042724609375,0.0318145751953125
1782891080123346400,9.140346435546874,-1.0010528564453125,-0.020660400390625,0.0334930419921875
1782891080133367800,9.150367919921875,-1.0018310546875,-0.0217742919921875,0.033203125
1782891080143390000,9.160389892578126,-1.001251220703125,-0.021942138671875,0.0340118408203125
1782891080153411800,9.170411865234374,-1.0012359619140625,-0.0219573974609375,0.03460693359375
1782891080163433700,9.180433837890625,-1.00067138671875,-0.020904541015625,0.032745361328125
1782891080173456000,9.190455810546876,-1.000701904296875,-0.0213775634765625,0.0333099365234375
1782891080183478800,9.200478759765625,-1.001220703125,-0.0230560302734375,0.035247802734375
1782891080193500700,9.210500732421876,-1.001220703125,-0.0208892822265625,0.03350830078125
1782891080203522800,9.220522705078125,-0.9993438720703125,-0.0202484130859375,0.035369873046875
1782891080213545000,9.230544921875,-1.000274658203125,-0.021820068359375,0.0316162109375
1782891080223566800,9.24056689453125,-1.0012359619140625,-0.0205230712890625,0.033172607421875
1782891080233589000,9.250589111328125,-0.9993743896484375,-0.021240234375,0.0334625244140625
1782891080243611000,9.26061083984375,-1.0006561279296875,-0.021575927734375,0.033233642578125
1782891080253632800,9.2706328125,-1.002288818359375,-0.0199432373046875,0.03375244140625
1782891080263655000,9.280655029296875,-1.0021514892578125,-0.0210113525390625,0.03387451171875
1782891080273676800,9.2906767578125,-1.0009002685546875,-0.02239990234375,0.0339508056640625
1782891080283698700,9.30069873046875,-0.999847412109375,-0.0216522216796875,0.0352020263671875
1782891080293721000,9.31072119140625,-0.9995880126953125,-0.02081298828125,0.033477783203125
1782891080303743000,9.320742919921875,-1.000518798828125,-0.0216217041015625,0.0326080322265625
1782891080313766000,9.330765869140626,-1.0008544921875,-0.021820068359375,0.0325775146484375
1782891080323788000,9.3407880859375,-1.00054931640625,-0.0209197998046875,0.0326995849609375
1782891080333810000,9.350809814453125,-1.0003662109375,-0.0215911865234375,0.03289794921875
1782891080343831800,9.360831787109374,-1.0002593994140625,-0.021881103515625,0.0328521728515625
1782891080353854000,9.37085400390625,-1.0005340576171875,-0.0217437744140625,0.03253173828125
1782891080363875800,9.380875732421876,-1.000732421875,-0.0211181640625,0.034149169921875
1782891080373897700,9.390897705078125,-1.001983642578125,-0.02105712890625,0.0328216552734375
1782891080383919900,9.400919921875,-1.000762939453125,-0.019775390625,0.03265380859375
1782891080393941800,9.410941650390624,-0.9989166259765625,-0.020843505859375,0.032958984375
1782891080403964000,9.4209638671875,-0.998992919921875,-0.021636962890625,0.0327606201171875
1782891080413986000,9.430986083984376,-1.0025634765625,-0.0212860107421875,0.0347747802734375
1782891080424008000,9.441008056640625,-1.001861572265625,-0.0218353271484375,0.033172607421875
1782891080434030800,9.45103076171875,-1.0009613037109375,-0.021759033203125,0.0331878662109375
1782891080444053000,9.461052978515625,-1.00189208984375,-0.020660400390625,0.0331573486328125
1782891080454075000,9.471074951171875,-1.0011444091796875,-0.021697998046875,0.0334625244140625
1782891080464096800,9.4810966796875,-1.0016021728515625,-0.0220947265625,0.032989501953125
1782891080474119000,9.491118896484375,-1.0017242431640625,-0.02203369140625,0.033935546875
1782891080484140800,9.501140869140626,-1.002716064453125,-0.021087646484375,0.0335845947265625
1782891080494162700,9.51116259765625,-1.0018463134765625,-0.021728515625,0.033599853515625
1782891080504185000,9.52118505859375,-1.0014495849609375,-0.020172119140625,0.0332489013671875
1782891080514207000,9.53120703125,-0.998779296875,-0.0203399658203125,0.0329132080078125
1782891080524228900,9.541228759765625,-0.9994659423828125,-0.02130126953125,0.03363037109375
1782891080534251000,9.5512509765625,-1.0006103515625,-0.020904541015625,0.03399658203125
1782891080544273000,9.56127294921875,-1.0009613037109375,-0.020294189453125,0.0327301025390625
1782891080554295800,9.5712958984375,-1.0016021728515625,-0.0211334228515625,0.032958984375
1782891080564318000,9.58131787109375,-1.0008697509765625,-0.0202178955078125,0.03167724609375
1782891080574339800,9.59133984375,-1.0010528564453125,-0.0209197998046875,0.0330657958984375
1782891080584361700,9.60136181640625,-1.0005035400390625,-0.020965576171875,0.03436279296875
1782891080594384000,9.6113837890625,-1.0005340576171875,-0.019989013671875,0.0337677001953125
1782891080604405800,9.62140576171875,-0.999237060546875,-0.0217742919921875,0.0327911376953125
1782891080614428000,9.631427978515624,-1.001190185546875,-0.020965576171875,0.032623291015625
1782891080624450000,9.641449951171875,-1.000885009765625,-0.02191162109375,0.031341552734375
1782891080634472000,9.651471923828124,-0.9997406005859375,-0.0209503173828125,0.0319061279296875
1782891080644493800,9.661493896484375,-1.0016937255859375,-0.0229644775390625,0.03411865234375
1782891080654516000,9.671515869140626,-1.000732421875,-0.02044677734375,0.0315704345703125
1782891080664537900,9.681537841796874,-1.00054931640625,-0.0212860107421875,0.03265380859375
1782891080674559700,9.691559814453125,-1.0013427734375,-0.0223388671875,0.0339508056640625
1782891080684583000,9.7015830078125,-1.000579833984375,-0.021209716796875,0.0317840576171875
1782891080694604800,9.711604736328125,-0.99969482421875,-0.0209197998046875,0.0344390869140625
1782891080704626700,9.721626708984376,-1.000885009765625,-0.0205078125,0.0337677001953125
1782891080714649000,9.731649169921875,-1.00006103515625,-0.0201873779296875,0.0331878662109375
1782891080724671000,9.7416708984375,-1.0004425048828125,-0.02020263671875,0.0325469970703125
1782891080734692900,9.75169287109375,-1.001800537109375,-0.02099609375,0.0338287353515625
1782891080744715000,9.761715087890625,-1.0012359619140625,-0.0211639404296875,0.0345916748046875
1782891080754737000,9.77173681640625,-1.0020294189453125,-0.0217132568359375,0.0335693359375
1782891080764758800,9.7817587890625,-1.001190185546875,-0.020843505859375,0.033416748046875
1782891080774781000,9.791781005859375,-1.00054931640625,-0.021209716796875,0.0340728759765625
1782891080784802800,9.801802734375,-1.0003662109375,-0.02069091796875,0.03167724609375
1782891080794825000,9.811824951171875,-0.9998321533203125,-0.021484375,0.033721923828125
1782891080804847900,9.821847900390624,-1.0003509521484375,-0.0211029052734375,0.0331878662109375
1782891080814869800,9.831869873046875,-1.002166748046875,-0.0222015380859375,0.03302001953125
1782891080824892000,9.841891845703126,-1.00018310546875,-0.020477294921875,0.0343780517578125
1782891080834914000,9.8519140625,-1.001312255859375,-0.021484375,0.033966064453125
1782891080844936000,9.86193603515625,-1.0019378662109375,-0.0216217041015625,0.0337066650390625
1782891080854957800,9.871957763671874,-1.00213623046875,-0.020782470703125,0.0318756103515625
1782891080864980000,9.88197998046875,-1.0009307861328125,-0.020538330078125,0.0324249267578125
1782891080875001900,9.892001953125,-0.999298095703125,-0.02105712890625,0.0322113037109375
1782891080885023700,9.902023681640625,-1.0001068115234375,-0.0212554931640625,0.03271484375
1782891080895045600,9.912045654296875,-1.001068115234375,-0.0200653076171875,0.0322113037109375
1782891080905068000,9.922068115234374,-1.000885009765625,-0.0208892822265625,0.033905029296875
1782891080915090000,9.93208984375,-1.0007476806640625,-0.0221099853515625,0.032745361328125
1782891080925111800,9.94211181640625,-0.9999237060546875,-0.0221405029296875,0.032012939453125
1782891080935135000,9.952135009765625,-1.0012359619140625,-0.02069091796875,0.0321807861328125
1782891080945156900,9.962156982421876,-0.99993896484375,-0.019622802734375,0.0332794189453125
1782891080955179000,9.972178955078125,-1.0018310546875,-0.020233154296875,0.032440185546875
1782891080965201000,9.982200927734375,-1.00042724609375,-0.021209716796875,0.0334320068359375
1782891080975222800,9.992222900390624,-1.0004119873046875,-0.020904541015625,0.033477783203125
1782891080985245000,10.002244873046875,-1.0005950927734375,-0.021148681640625,0.03240966796875
1782891080995266800,10.012266845703126,-1.0009002685546875,-0.0205841064453125,0.0341033935546875
1782891081005289000,10.0222890625,-0.9998779296875,-0.0210113525390625,0.0333099365234375
1782891081015310800,10.032310791015625,-1.0006103515625,-0.021636962890625,0.0327606201171875
1782891081025333000,10.0423330078125,-1.0006256103515625,-0.0206146240234375,0.0334320068359375
1782891081035355000,10.05235498046875,-1.0005035400390625,-0.020599365234375,0.0325775146484375
1782891081045376800,10.062376708984376,-1.0024871826171875,-0.022552490234375,0.0341033935546875
1782891081055400000,10.07239990234375,-1.0016021728515625,-0.0219879150390625,0.032958984375
1782891081065421800,10.082421875,-1.0001373291015625,-0.0209503173828125,0.0327301025390625
1782891081075444000,10.09244384765625,-1.00079345703125,-0.0206298828125,0.03228759765625
1782891081085465900,10.1024658203125,-1.0011138916015625,-0.0209197998046875,0.034149169921875
1782891081095487700,10.11248779296875,-1.0008697509765625,-0.021881103515625,0.03326416015625
1782891081105509600,10.122509521484375,-1.002227783203125,-0.01983642578125,0.0318603515625
1782891081115532000,10.132531982421876,-1.0020599365234375,-0.02166748046875,0.0322113037109375
1782891081125554000,10.142553955078125,-0.9996490478515625,-0.0206451416015625,0.0326080322265625
1782891081135575300,10.1525751953125,-1.000946044921875,-0.0232086181640625,0.033935546875
1782891081145597200,10.16259716796875,-1.0023651123046875,-0.0213470458984375,0.0346832275390625
1782891081155619300,10.172619384765625,-0.9997406005859375,-0.0208587646484375,0.03271484375
1782891081165641200,10.18264111328125,-1.00091552734375,-0.02069091796875,0.0337371826171875
1782891081175664000,10.1926640625,-1.0006256103515625,-0.0217437744140625,0.03338623046875
1782891081185686300,10.202686279296875,-1.0001678466796875,-0.0215911865234375,0.03411865234375
1782891081195708200,10.212708251953124,-0.9996337890625,-0.021759033203125,0.0333404541015625
1782891081205730300,10.222730224609375,-1.0002288818359375,-0.0211639404296875,0.0330657958984375
1782891081215752400,10.23275244140625,-0.999908447265625,-0.022003173828125,0.0335235595703125
1782891081225774300,10.2427744140625,-1.000244140625,-0.0204620361328125,0.0354156494140625
1782891081235796200,10.252796142578125,-0.999176025390625,-0.0212554931640625,0.0348968505859375
1782891081245818400,10.262818359375,-1.000274658203125,-0.021575927734375,0.0342864990234375
1782891081255840300,10.27284033203125,-1.001007080078125,-0.0200347900390625,0.033599853515625
1782891081265862100,10.282862060546876,-1.0003509521484375,-0.0214385986328125,0.0335540771484375
1782891081275884300,10.29288427734375,-1.0010528564453125,-0.0208587646484375,0.033966064453125
1782891081285906400,10.302906494140625,-1.0002899169921875,-0.022064208984375,0.0333709716796875
1782891081295928300,10.31292822265625,-1.0007476806640625,-0.022796630859375,0.0347747802734375
1782891081305951200,10.322951171875,-1.0016021728515625,-0.0211639404296875,0.03338623046875
1782891081315973400,10.332973388671874,-1.0017242431640625,-0.0223846435546875,0.0332183837890625
1782891081325995300,10.342995361328125,-1.001312255859375,-0.0220947265625,0.034698486328125
1782891081336017400,10.353017333984376,-1.00091552734375,-0.0219268798828125,0.0343017578125
1782891081346039300,10.363039306640625,-1.00128173828125,-0.02099609375,0.0331268310546875
1782891081356061200,10.373061279296875,-1.0000457763671875,-0.0227508544921875,0.03271484375
1782891081366083300,10.383083251953124,-1.001312255859375,-0.0225677490234375,0.033843994140625
1782891081376105200,10.393105224609375,-1.0007476806640625,-0.0204620361328125,0.0322113037109375
1782891081386127400,10.40312744140625,-1.001556396484375,-0.022125244140625,0.0335693359375
1782891081396149500,10.4131494140625,-1.001007080078125,-0.02117919921875,0.0325927734375
1782891081406171400,10.42317138671875,-1.002593994140625,-0.0202789306640625,0.03375244140625
1782891081416193300,10.433193359375,-1.0006561279296875,-0.02130126953125,0.033660888671875
1782891081426216400,10.443216552734375,-1.000518798828125,-0.0211944580078125,0.0325775146484375
1782891081436238300,10.45323828125,-1.0001373291015625,-0.020965576171875,0.033050537109375
1782891081446260200,10.46326025390625,-1.000213623046875,-0.021759033203125,0.033203125
1782891081456282400,10.473282470703126,-0.9999237060546875,-0.0205841064453125,0.033843994140625
1782891081466304300,10.48330419921875,-1.001312255859375,-0.02001953125,0.0327301025390625
1782891081476326100,10.493326171875,-1.000274658203125,-0.0214996337890625,0.0334930419921875
1782891081486348300,10.503348388671874,-1.00115966796875,-0.021240234375,0.0325775146484375
1782891081496370400,10.513370361328125,-1.0009918212890625,-0.0207366943359375,0.032806396484375
1782891081506392300,10.523392333984376,-0.9996795654296875,-0.0211944580078125,0.0341796875
1782891081516414500,10.53341455078125,-1.00054931640625,-0.022491455078125,0.034393310546875
1782891081526436400,10.543436279296875,-1.0003509521484375,-0.0224151611328125,0.032867431640625
1782891081536458200,10.553458251953124,-1.000946044921875,-0.0211181640625,0.0336761474609375
1782891081546481400,10.5634814453125,-1.00146484375,-0.021148681640625,0.0337371826171875
1782891081556503300,10.57350341796875,-1.000030517578125,-0.0208740234375,0.0333709716796875
1782891081566525200,10.583525146484375,-1.001068115234375,-0.020721435546875,0.0344085693359375
1782891081576547300,10.59354736328125,-1.0003204345703125,-0.022491455078125,0.0317535400390625
1782891081586569200,10.6035693359375,-1.0005950927734375,-0.021484375,0.0322723388671875
1782891081596591400,10.61359130859375,-1.00079345703125,-0.0219573974609375,0.0338134765625
1782891081606613500,10.623613525390626,-1.0002288818359375,-0.022430419921875,0.0340728759765625
1782891081616635400,10.633635498046875,-1.00018310546875,-0.02099609375,0.0326995849609375
1782891081626657300,10.6436572265625,-1.000885009765625,-0.0213623046875,0.03350830078125
1782891081636679400,10.653679443359374,-0.999969482421875,-0.020263671875,0.0345916748046875
1782891081646701300,10.663701416015625,-0.999603271484375,-0.0213775634765625,0.0340576171875
1782891081656723200,10.67372314453125,-1.002288818359375,-0.0209503173828125,0.033843994140625
1782891081666745000,10.6837451171875,-1.0009613037109375,-0.0210723876953125,0.0329437255859375
1782891081676768300,10.693768310546876,-1.0002593994140625,-0.020721435546875,0.0338134765625
1782891081686790100,10.7037900390625,-0.9997406005859375,-0.0214996337890625,0.0343475341796875
1782891081696812300,10.713812255859375,-1.0004730224609375,-0.0215911865234375,0.0333709716796875
1782891081706834400,10.72383447265625,-1.0004119873046875,-0.021942138671875,0.0333709716796875
1782891081716856300,10.733856201171875,-1.000640869140625,-0.0201568603515625,0.0315704345703125
1782891081726878500,10.74387841796875,-1.0054168701171875,-0.019744873046875,0.0298919677734375
1782891081736900400,10.753900390625,-1.00274658203125,-0.016571044921875,0.0199737548828125
1782891081746922200,10.763922119140625,-0.9998016357421875,-0.02301025390625,0.0269012451171875
1782891081756944100,10.773944091796874,-0.9994354248046875,-0.02099609375,0.039031982421875
1782891081766966300,10.78396630859375,-0.9996490478515625,-0.0261383056640625,0.0474853515625
1782891081776988200,10.79398828125,-0.9977264404296875,-0.0250244140625,0.0481414794921875
1782891081787010300,10.80401025390625,-0.9998931884765625,-0.0237884521484375,0.0444183349609375
1782891081797033200,10.814033203125,-0.99908447265625,-0.0233306884765625,0.0363616943359375
1782891081807055400,10.824055419921875,-1.002655029296875,-0.022308349609375,0.02886962890625
1782891081817077500,10.834077392578125,-0.9994049072265625,-0.0224151611328125,0.0297088623046875
1782891081827099400,10.844099365234374,-0.997955322265625,-0.023712158203125,0.033905029296875
1782891081837121300,10.854121337890625,-1.0044403076171875,-0.0178985595703125,0.029876708984375
1782891081847143200,10.86414306640625,-1.00543212890625,-0.0159149169921875,0.0218658447265625
