time,seconds_elapsed,z,y,x
1782891071003254500,0.020254638671875,0.0002817624481394887,0.006500243674963713,-0.0010812433902174234
1782891071013276400,0.0302763671875,-0.0020988371688872576,0.016350744292140007,0.001978462329134345
1782891071023298600,0.040298583984375,-0.0024383901618421078,0.016831178218126297,0.00646562222391367
1782891071033320400,0.050320556640625,-0.0007728493656031787,0.005750563926994801,-0.0020929782185703516
1782891071043342300,0.06034228515625,-0.0016410398529842496,0.0002913498319685459,-0.0011318434262648225
1782891071053364500,0.070364501953125,-0.003519367426633835,0.0010990865994244814,0.0013579458463937044
1782891071063387400,0.080387451171875,-0.0024679512716829777,0.009446498937904835,0.00019334549142513424
1782891071073409300,0.0904091796875,-0.0008380967774428427,0.01672944612801075,0.0032842103391885757
1782891071083431400,0.100431396484375,-0.0022623552940785885,0.0065263425931334496,0.0012029499048367143
1782891071093453300,0.110453369140625,-0.0006511429091915488,0.00021997711155563593,-0.00038775624125264585
1782891071103475500,0.120475341796875,-0.0017361147329211235,-0.00020240024605300277,0.0013142699608579278
1782891071113497600,0.13049755859375,-0.0018642127979546785,0.007309312000870705,0.0015169365797191858
1782891071123519500,0.14051953125,0.0007392935222014785,0.013000487349927425,0.005228584166616201
1782891071133541600,0.150541748046875,-0.0018817896489053965,0.011030812747776508,-0.00088976213010028
1782891071143563500,0.1605634765625,-0.0020501012913882732,0.003811516100540757,-0.002395247109234333
1782891071153585400,0.17058544921875,0.00041571943438611925,-0.0005025385180488229,0.00043995422311127186
1782891071163607600,0.180607666015625,-0.002636795863509178,0.003674097126349807,0.0022628880105912685
1782891071173629400,0.19062939453125,-0.0006407565670087934,0.012340023182332516,0.001392300589941442
1782891071183651300,0.2006513671875,0.00004474110755836591,0.011365838348865509,0.003311374457553029
1782891071193674500,0.210674560546875,-0.0007198524544946849,0.005146026145666838,-0.00012490226072259247
1782891071203696400,0.2206962890625,-0.000618918624240905,0.0024985778145492077,0.0032258869614452124
1782891071213718500,0.230718505859375,-0.00213558878749609,0.004306064918637276,-0.0005459480453282595
1782891071223740700,0.24074072265625,-0.0013422331539914012,0.006373743526637554,0.0027142937760800123
1782891071233762600,0.250762451171875,-0.0010812433902174234,0.010938934050500393,0.0026724820490926504
1782891071243784400,0.260784423828125,-0.0015188007382676005,0.006992928218096495,0.0009275790071114898
1782891071253806600,0.270806640625,0.00047643951256759465,0.00012543488992378116,0.002496447181329131
1782891071263828500,0.280828369140625,-0.004099670331925154,0.004633900243788958,0.0009643306257203221
1782891071273850400,0.290850341796875,-0.003611779073253274,0.008477640338242054,0.003591006388887763
1782891071283872500,0.30087255859375,-0.0026522420812398195,0.008843558840453625,-0.0003126551164314151
1782891071293894700,0.310894775390625,-0.002201635157689452,0.008086955174803734,0.0011270497925579548
1782891071303916500,0.32091650390625,-0.0015009575290605426,0.0008825715631246567,-0.0010703244479373097
1782891071313939500,0.330939453125,-0.003269562730565667,0.004260791465640068,0.00044607947347685695
1782891071323961600,0.340961669921875,-0.0009502158500254154,0.006767624989151955,-0.0003486077766865492
1782891071333983500,0.3509833984375,0.0009387642494402826,0.007987353019416332,0.003808320267125964
1782891071344005600,0.361005615234375,-0.001505484920926392,0.005840844940394163,0.003620567498728633
1782891071354027500,0.371027587890625,-0.0019718045368790627,0.008314122445881367,0.00035260253935121
1782891071364049400,0.38104931640625,-0.0031792817171663046,0.004463990684598684,0.0022916500456631184
1782891071374071600,0.391071533203125,-0.0013608753215521574,0.0051686628721654415,0.0004796353168785572
1782891071384093400,0.401093505859375,-0.0014729943359270692,0.005422195885330439,0.0013105415273457766
1782891071394115300,0.411115234375,-0.0008159925346262753,0.00939003936946392,0.001746234716847539
1782891071404137700,0.4211376953125,-0.002395247109234333,0.006434197071939707,0.000854075769893825
1782891071414159600,0.43115966796875,-0.0017656758427619934,0.007252320181578398,0.0017070862231776118
1782891071424181500,0.441181396484375,-0.0012005530297756195,0.0052237906493246555,-0.00025060345069505274
1782891071434203400,0.451203369140625,-0.0020367854740470648,0.008190019056200981,0.0011014834744855762
1782891071444226600,0.4612265625,-0.0010295780375599861,0.00993279181420803,0.002175003755837679
1782891071454248400,0.47124853515625,-0.002668487373739481,0.008268316276371479,-0.000660463934764266
1782891071464270600,0.4812705078125,-0.003368099918588996,0.007498130202293396,0.00250576832331717
1782891071474292500,0.49129248046875,0.0002378202771069482,0.0038637141697108746,0.0014330470003187656
1782891071484314400,0.501314453125,0.00031904669594950974,0.0065077003091573715,-0.0007664577569812536
1782891071494336500,0.51133642578125,-0.00020293287525419146,0.007246461231261492,0.001365668955259025
1782891071504358700,0.521358642578125,-0.002232261700555682,0.007947937585413456,0.002338521648198366
1782891071514380500,0.531380615234375,-0.00290444353595376,0.004202734678983688,0.001434112200513482
1782891071524402700,0.541402587890625,-0.0020069582387804985,0.00666269613429904,0.0009992180857807398
1782891071534424600,0.551424560546875,-0.001059139147400856,0.004267449490725994,0.0038725025951862335
1782891071544446500,0.561446533203125,-0.0007890945998951793,0.007310110609978437,0.0018719359068199992
1782891071554468400,0.57146826171875,-0.0009976201690733433,0.007929828017950058,0.0010993528412654996
1782891071564490500,0.581490478515625,-0.0025334651581943035,0.006928479764610529,0.000645550258923322
1782891071574513400,0.591513427734375,-0.0032208270858973265,0.005589175969362259,0.0005579322460107505
1782891071584535600,0.60153564453125,-0.001315335277467966,0.0062885223887860775,-0.002602973720058799
1782891071594557400,0.611557373046875,0.0012471582740545273,0.006956975441426039,0.0027510453946888447
1782891071604579300,0.621579345703125,-0.0017496967921033502,0.005795038305222988,0.0006463492172770202
1782891071614601700,0.631601806640625,-0.0007456850726157427,0.009861418977379799,0.0019497001776471734
1782891071624623600,0.64162353515625,-0.003659449517726898,0.006623015273362398,0.001178448786959052
1782891071634645500,0.6516455078125,-0.003425091505050659,0.00737322773784399,-0.0024282701779156923
1782891071644667400,0.66166748046875,-0.00021252025908324867,0.006555370986461639,0.0005089300684630871
1782891071654689500,0.671689453125,-0.0009158611064776778,0.005090898834168911,0.0003605920064728707
1782891071664711400,0.68171142578125,-0.00022530343267135322,0.006117813754826784,0.002882871776819229
1782891071674733300,0.6917333984375,-0.0010069411946460605,0.003599794814363122,-0.000046871635277057067
1782891071684755500,0.70175537109375,-0.001386175281368196,0.004223507363349199,0.002133458387106657
1782891071694778400,0.7117783203125,0.00040266994619742036,0.003937483765184879,0.0025936525780707598
1782891071704800500,0.721800537109375,-0.0015962987672537565,0.008859005756676197,0.0009134642314165831
1782891071714822700,0.73182275390625,-0.0023459785152226686,0.007768440991640091,0.0011912320042029023
1782891071724844500,0.741844482421875,-0.0016197345685213804,0.004215251188725233,0.004585164599120617
1782891071734866700,0.75186669921875,-0.003228283952921629,0.0070432620123028755,-0.00024527712957933545
1782891071744888600,0.761888671875,-0.0012333098566159606,0.007820106111466885,0.003716707695275545
1782891071754910500,0.771910400390625,0.0004093278548680246,0.006911968346685171,0.0003709783486556262
1782891071764932400,0.781932373046875,-0.001847434788942337,0.004847751930356026,0.0037593182642012835
1782891071774954500,0.79195458984375,-0.0011518171522766352,0.005487443413585424,0.0032354744616895914
1782891071784976400,0.801976318359375,-0.002394448034465313,0.005693572107702494,0.001389637473039329
1782891071794998500,0.81199853515625,-0.000586161739192903,0.00518837058916688,0.002353968098759651
1782891071805020700,0.822020751953125,0.0002697782183531672,0.0049766493029892445,0.00043782367720268667
1782891071815042600,0.83204248046875,0.00007057376933516935,0.005988117773085833,0.0021169467363506556
1782891071825065700,0.842065673828125,-0.00040666470886208117,0.007081877905875444,-0.0005976133397780359
1782891071835087600,0.852087646484375,-0.0004338289436418563,0.002255697501823306,0.003781422507017851
1782891071845109500,0.862109619140625,-0.0027715517207980156,0.007435545790940523,0.002980343531817198
1782891071855131400,0.87213134765625,-0.00010519486386328936,0.006449909880757332,0.0014032195322215557
1782891071865153500,0.882153564453125,-0.0007326356135308743,0.006308229640126228,0.0016564861871302128
1782891071875175400,0.892175537109375,-0.004738562274724245,0.00926194153726101,0.0005193164106458426
1782891071885197300,0.902197265625,0.0020386497490108013,0.005885319784283638,0.0014394385507330298
1782891071895219500,0.912219482421875,0.0003312972257845104,0.005751096177846193,0.00250496924854815
1782891071905241600,0.92224169921875,-0.0019236012594774365,0.007437942549586296,0.0006660565850324929
1782891071915263500,0.932263427734375,-0.0007574030314572155,0.006864564027637243,0.002214152133092284
1782891071925285600,0.94228564453125,-0.001910019083879888,0.006744988262653351,0.000041278995922766626
1782891071935307500,0.9523076171875,-0.001975532853975892,0.005512476898729801,0.0020751350093632936
1782891071945330400,0.962330322265625,-0.0010016148444265127,0.003757187630981207,0.0005526058957912028
1782891071955352600,0.9723525390625,-0.0011566109023988247,0.007555121555924416,0.0016354472609236836
1782891071965374500,0.98237451171875,-0.004546282347291708,0.007737015374004841,-0.0006167881074361503
1782891071975396400,0.992396240234375,-0.0032719597220420837,0.00842464342713356,0.0002846919232979417
1782891071985418500,1.00241845703125,-0.001722798915579915,0.00782489962875843,0.0007712514488957822
1782891071995440400,1.0124404296875,0.00009161273919744417,0.005666940473020077,0.002255431143566966
1782891072005462500,1.022462646484375,0.00011717908637365326,0.007848601788282394,0.0034171019215136766
1782891072015484700,1.032484619140625,-0.00003328951424919069,0.007623032201081514,0.0003171824791934341
1782891072025506600,1.042506591796875,-0.0026762105990201235,0.00697961263358593,0.0014436995843425393
1782891072035528400,1.052528564453125,-0.0025800704024732113,0.008263522759079933,-0.0020479708909988403
1782891072045550600,1.062550537109375,-0.0018959043081849813,0.007822769694030285,-0.00015233281010296196
1782891072055572500,1.072572509765625,-0.0010210559703409672,0.006827545817941427,0.000245543458731845
1782891072065594400,1.082594482421875,-0.0025513083674013615,0.006512227933853865,0.002490854589268565
1782891072075617500,1.092617431640625,-0.0023094932548701763,0.00830773077905178,0.0013512879377231002
1782891072085639400,1.102639404296875,0.00004394215648062527,0.004245078656822443,0.0014863101532682776
1782891072095661300,1.112661376953125,0.0007068029372021556,0.004862665664404631,0.0008958873804658651
1782891072105683500,1.122683349609375,-0.0014274542918428779,0.005441637244075537,-0.00007297061529243365
1782891072115705600,1.13270556640625,0.0008482168195769191,0.005363606382161379,0.00012756542128045112
1782891072125727000,1.14272705078125,-0.0033566481433808804,0.0059420447796583176,-0.000559263804461807
1782891072135749000,1.1527490234375,-0.0015928366919979453,0.005465605296194553,0.0037555897142738104
1782891072145771000,1.16277099609375,-0.0024983114562928677,0.008527974598109722,0.0020501012913882732
1782891072155793000,1.17279296875,-0.0020927118603140116,0.007670969236642122,0.0007472829893231392
1782891072165815000,1.18281494140625,0.00019387812062632293,0.007270696107298136,0.002240251051262021
1782891072175837000,1.1928369140625,-0.003599528456106782,0.007152451667934656,-0.0006138586322776973
1782891072185859000,1.202859130859375,-0.0016791230300441384,0.00794527493417263,0.0009443568997085094
1782891072195881000,1.212880859375,-0.001713744131848216,0.005049353465437889,0.003614708548411727
1782891072205904100,1.222904052734375,-0.0006245112745091319,0.007810518611222506,0.00029081720276735723
1782891072215926000,1.232926025390625,-0.0010697918478399515,0.004433630499988794,0.0036906085442751646
1782891072225948200,1.2429482421875,-0.0021435783710330725,0.005282113794237375,0.002921221312135458
1782891072235970000,1.252969970703125,-0.0024764735717326403,0.006069610361009836,0.0005158542771823704
1782891072245992000,1.262991943359375,-0.002310824813321233,0.005817675497382879,0.003623230615630746
1782891072256014000,1.27301416015625,-0.0006301039247773588,0.00729386555030942,0.0031579763162881136
1782891072266036000,1.283035888671875,-0.0006777744856663048,0.0067849354818463326,0.0036517265252768993
1782891072276057900,1.293057861328125,-0.0025545042008161545,0.009782856330275536,0.0004021373169962317
1782891072286080000,1.303080078125,-0.0027483822777867317,0.007720237597823143,0.0014788532862439752
1782891072296102100,1.31310205078125,-0.002419215627014637,0.005935919936746359,0.0011211908422410488
1782891072306124000,1.3231240234375,-0.0006588660762645304,0.008670187555253506,0.0031398669816553593
1782891072316146000,1.33314599609375,-0.0020090886391699314,0.007355650886893272,0.002094576135277748
1782891072326169000,1.343169189453125,-0.0013986921403557062,0.0064986455254256725,-0.000966993800830096
1782891072336191000,1.35319091796875,-0.0006727144937030971,0.008595352061092854,0.002001898130401969
1782891072346213000,1.363213134765625,0.00023382554354611784,0.008894691243767738,0.0006801713607273996
1782891072356235000,1.373235107421875,0.00008442220860160887,0.005456550512462854,-0.000036751622246811166
1782891072366257000,1.3832568359375,0.0008069378091022372,0.006662430241703987,0.0033832797780632973
1782891072376279000,1.393279052734375,-0.003567570587620139,0.007931426167488098,0.001933721243403852
1782891072386301000,1.403301025390625,-0.001990979304537177,0.008533567190170288,-0.0002205097407568246
1782891072396323000,1.413322998046875,-0.0010905644157901406,0.005281048361212015,0.0015670040156692266
1782891072406345000,1.423344970703125,-0.0012945625931024551,0.007672034204006195,0.0012428972404450178
1782891072416367000,1.4333671875,-0.0016386429779231548,0.005166532471776009,0.00026365293888375163
1782891072426389000,1.443388916015625,-0.0007171892793849111,0.006364688742905855,0.002377936616539955
1782891072436411000,1.453410888671875,-0.0002657834847923368,0.008520517498254776,0.0025513083674013615
1782891072446433000,1.46343310546875,0.0013904364313930273,0.008624114096164703,0.00021225394448265433
1782891072456456000,1.4734560546875,-0.00253399764187634,0.005544435232877731,0.0019481023773550987
1782891072466478000,1.48347802734375,-0.003465571440756321,0.007872570306062698,0.0024703482631593943
1782891072476500000,1.4935,-0.002692455891519785,0.007478422485291958,0.0013222594279795885
1782891072486521900,1.50352197265625,-0.000740625080652535,0.006018743850290775,0.0002942793071269989
1782891072496544000,1.5135439453125,-0.0014591459184885025,0.0075700352899730206,0.0030336068011820316
1782891072506566100,1.523566162109375,-0.0005885586142539978,0.00586614478379488,-0.0001179780374513939
1782891072516588000,1.533588134765625,-0.00253426400013268,0.006223008502274752,0.0015209312550723553
1782891072526610000,1.54360986328125,-0.002348109148442745,0.00686190091073513,-0.001520665013231337
1782891072536632000,1.553632080078125,-0.002998719457536936,0.007921839132905006,0.0015480954898521304
1782891072546654000,1.563654052734375,-0.0018394453218206763,0.006800381932407618,0.0013755226973444223
1782891072556675800,1.57367578125,-0.000523577444255352,0.0062853265553712845,0.003802194958552718
1782891072566698000,1.583697998046875,-0.0006897587445564568,0.003712446428835392,0.0006471481174230576
1782891072576720000,1.593719970703125,-0.0008114652009680867,0.006896255537867546,0.000907338981050998
1782891072586743000,1.603742919921875,-0.0004564658156596124,0.006560430862009525,0.002243979601189494
1782891072596765000,1.613764892578125,-0.0014679343439638615,0.005051217507570982,0.0026852653827518225
1782891072606787000,1.623787109375,-0.0012450277572497725,0.006487993057817221,0.002171807922422886
1782891072616809000,1.63380908203125,-0.0015901734586805105,0.008375641889870167,0.0024546354543417692
1782891072626831000,1.6438310546875,-0.000675111310556531,0.005379052832722664,0.0025425199419260025
1782891072636853000,1.65385302734375,-0.0009614011505618691,0.007100253831595182,0.0020122844725847244
1782891072646875000,1.663875,-0.0008258462767116725,0.005031243897974491,0.0003195793251506984
1782891072656897000,1.67389697265625,-0.002484196564182639,0.006141782272607088,0.003172357566654682
1782891072666919000,1.6839189453125,-0.0037033918779343367,0.005548163317143917,0.0006026733317412436
1782891072676940800,1.69394091796875,-0.0016530241118744016,0.008652344346046448,0.0016226640436798334
1782891072686963200,1.703963134765625,-0.0020628846250474453,0.007672300562262535,-0.0013353090034797788
1782891072696985000,1.713985107421875,-0.002039981307461858,0.0037950044497847557,0.004258926957845688
1782891072707007000,1.724007080078125,-0.00058323226403445,0.0070368703454732895,0.0033332123421132565
1782891072717030100,1.734030029296875,0.00018748654110822827,0.006721019744873047,0.0035750274546444416
1782891072727052000,1.744052001953125,0.00025060345069505274,0.005401156842708588,0.0003171824791934341
1782891072737074000,1.754073974609375,-0.0022058964241296053,0.0073593794368207455,0.001094559207558632
1782891072747096000,1.764095947265625,0.00011584750609472394,0.006041913293302059,0.0026317357551306486
1782891072757118000,1.774117919921875,-0.0025039040483534336,0.00797510240226984,0.0012008192716166377
1782891072767139800,1.784139892578125,-0.0007089334540069103,0.0060323262587189674,0.0003326288133393973
1782891072777162000,1.794161865234375,-0.0009262474486604333,0.006361492909491062,0.00029640982393175364
1782891072787184000,1.80418408203125,0.002064748667180538,0.005000085104256868,0.0008383630774915218
1782891072797206000,1.8142060546875,-0.0018959043081849813,0.007089600898325443,0.00210735946893692
1782891072807228200,1.824228271484375,-0.00031878036679700017,0.004543885588645935,-0.0000125168571685208
1782891072817250000,1.83425,-0.0019382486352697015,0.007866711355745792,0.001395496423356235
1782891072827272000,1.84427197265625,-0.0028639633674174547,0.00752050057053566,0.0017206683987751603
1782891072837294000,1.854294189453125,-0.001514539704658091,0.005967877805233002,0.000755805114749819
1782891072847317000,1.86431689453125,-0.0007233145297504961,0.005091697443276644,0.0019414444686844945
1782891072857339000,1.8743388671875,-0.00018642126815393567,0.004054396413266659,0.001549959764815867
1782891072867361000,1.884361083984375,-0.0011712582781910896,0.007196393795311451,0.0007150587625801563
1782891072877383000,1.8943828125,-0.0010154632618650794,0.0054610781371593475,0.0002490055630914867
1782891072887404800,1.90440478515625,-0.0020365193486213684,0.007739678490906954,0.0012452941155061126
1782891072897427200,1.91442724609375,-0.0021433120127767324,0.006214220076799393,0.0028996497858315706
1782891072907449000,1.924448974609375,-0.0009709885343909264,0.0057191383093595505,0.0007709851488471031
1782891072917471000,1.934470947265625,0.00012117382721044123,0.00675244489684701,0.0009723200928419828
1782891072927493000,1.9444931640625,-0.0023971113841980696,0.006728742737323046,-0.00024474450037814677
1782891072937515000,1.954514892578125,-0.00032091091270558536,0.002674346324056387,0.0004543352697510272
1782891072947537000,1.964536865234375,-0.001074052881449461,0.006116215605288744,0.0004820321628358215
1782891072957559000,1.97455908203125,0.0001294296234846115,0.004717523697763681,0.0005193164106458426
1782891072967581000,1.984580810546875,-0.0031558459158986807,0.006332997232675552,0.0012290488230064511
1782891072977603800,1.994603759765625,-0.0019435749854892492,0.008488825522363186,0.00007430219557136297
1782891072987626000,2.0046259765625,-0.0009177253232337534,0.006655239500105381,0.0006141249323263764
1782891072997648100,2.014648193359375,-0.0028879318851977587,0.005684783682227135,0.0003270361921750009
1782891073007670000,2.024669921875,-0.0008391620358452201,0.005058674607425928,0.002284459536895156
1782891073017692200,2.034692138671875,-0.0006620618514716625,0.0057798586785793304,0.00013262542779557407
1782891073027714000,2.044714111328125,0.0006500775925815105,0.006654440425336361,0.0011382350930944085
1782891073037736000,2.05473583984375,-0.000648479734081775,0.0030272151343524456,0.003933222498744726
1782891073047758000,2.064758056640625,-0.0029350698459893465,0.006472280248999596,0.0024884575977921486
1782891073057780000,2.074780029296875,-0.0016365124611184,0.006762565113604069,0.00247594085521996
1782891073067801900,2.0848017578125,0.00016538229829166085,0.005474127363413572,0.0024434502702206373
1782891073077824000,2.094823974609375,-0.003108974313363433,0.007754858583211899,0.0011235876008868217
1782891073087846100,2.10484619140625,-0.002433863002806902,0.00672288378700614,0.0020218719728291035
1782891073097868800,2.114868896484375,-0.0008319715270772576,0.007301056291908026,0.0010815097484737635
1782891073107891200,2.12489111328125,-0.001966211711987853,0.003765976056456566,0.000985103310085833
1782891073117913000,2.1349130859375,-0.002516420790925622,0.008481369353830814,-0.00024394555657636374
1782891073127935700,2.144935791015625,-0.0016916398890316486,0.008020109497010708,0.0007928230334073305
1782891073137957600,2.15495751953125,-0.0019955066964030266,0.007478955201804638,-0.0007560714147984982
1782891073147979800,2.164979736328125,-0.0032418658956885338,0.007211041171103716,0.0010008158860728145
1782891073158001700,2.175001708984375,-0.0009153284481726587,0.007493868935853243,0.003174487967044115
1782891073168023600,2.1850234375,-0.002241050126031041,0.008273908868432045,0.0006793724023737013
1782891073178045400,2.19504541015625,-0.001127316034398973,0.006828078534454107,0.0011566109023988247
1782891073188067600,2.205067626953125,-0.0013401026371866465,0.007681355345994234,-0.0005523395957425237
1782891073198089500,2.21508935546875,-0.000690291344653815,0.005228051450103521,0.0022266688756644726
1782891073208111600,2.225111572265625,-0.002100967802107334,0.004637628793716431,0.0011054781498387456
1782891073218133800,2.2351337890625,0.0013249226612970233,0.007213970646262169,0.0013132047606632113
1782891073228156700,2.24515673828125,0.0014793860027566552,0.007119961082935333,0.0030362699180841446
1782891073238178800,2.2551787109375,-0.00141041015740484,0.004808870144188404,0.0012474246323108673
1782891073248200700,2.26520068359375,-0.0013795174891129136,0.007210508454591036,0.002237055217847228
1782891073258222600,2.27522265625,-0.0005589975044131279,0.005416603293269873,0.0018383801216259599
1782891073268244700,2.28524462890625,-0.0007797735743224621,0.005294098053127527,0.002560629276558757
1782891073278266600,2.2952666015625,-0.004327103961259127,0.007416903506964445,0.000666322885081172
1782891073288288500,2.30528857421875,-0.0035694348625838757,0.004090615548193455,0.001461010193452239
1782891073298310400,2.315310302734375,-0.0006194512825459242,0.0064975805580616,0.001978995045647025
1782891073308332800,2.325332763671875,-0.0035140409599989653,0.004603806417435408,-0.0008282430935651064
1782891073318354700,2.335354736328125,0.0013438310706987977,0.006761766038835049,0.003771568648517132
1782891073328376600,2.34537646484375,-0.0010048106778413057,0.0041547976434230804,0.001201618229970336
1782891073338398700,2.355398681640625,-0.0015249260468408465,0.003936951048672199,0.0022501046769320965
1782891073348420600,2.365420654296875,-0.003285275539383292,0.008865396492183208,0.0019859191961586475
1782891073358443800,2.37544384765625,-0.0013454289874061942,0.005907423794269562,0.004081560764461756
1782891073368465700,2.385465576171875,-0.0011592740193009377,0.005685050040483475,0.0012511530658230186
1782891073378487600,2.395487548828125,-0.0034072482958436012,0.00626002624630928,-0.00045353634050115943
1782891073388509400,2.405509521484375,-0.0011110707418993115,0.003940945956856012,0.0010378338629379869
1782891073398531600,2.415531494140625,-0.003972903825342655,0.008926383219659328,-0.0008633967954665422
1782891073408553700,2.4255537109375,-0.0011251855175942183,0.006868292577564716,0.0007635282818228006
1782891073418575600,2.43557568359375,-0.0021816615480929613,0.004987568128854036,0.003379551460966468
1782891073428597800,2.44559765625,-0.0021856562234461308,0.0037020600866526365,0.0030029804911464453
1782891073438619600,2.45561962890625,-0.0021869877818971872,0.006315952632576227,0.0018516959389671683
1782891073448641500,2.4656416015625,-0.001526523963548243,0.006328469607979059,0.0012250541476532817
1782891073458663700,2.47566357421875,0.00042823629337362945,0.00600436283275485,0.001303351018577814
1782891073468685600,2.485685546875,-0.000957939017098397,0.0046538738533854485,0.002240251051262021
1782891073478707500,2.49570751953125,-0.001683916780166328,0.00703766942024231,0.0010010822443291545
1782891073488730600,2.505730712890625,-0.0012538161827251315,0.005363073665648699,0.004823517519980669
1782891073498752500,2.51575244140625,-0.0009688580175861716,0.005147890187799931,0.00021385183208622038
1782891073508774400,2.5257744140625,-0.0007510114228352904,0.006399576086550951,0.002201369032263756
1782891073518796800,2.535796875,-0.0002719087351579219,0.007284810766577721,0.00009400958515470847
1782891073528818700,2.545818603515625,-0.00012250541476532817,0.00577799417078495,0.0041247038170695305
1782891073538840600,2.555840576171875,-0.003306314582005143,0.007227553054690361,0.000254331884207204
1782891073548862700,2.56586279296875,-0.002906840294599533,0.008017446845769882,0.0008950884221121669
1782891073558884600,2.575884521484375,-0.0015238607302308083,0.006573214195668697,-0.000046871635277057067
1782891073568906500,2.585906494140625,-0.0010183927370235324,0.004734834190458059,0.0012634035665541887
1782891073578928600,2.5959287109375,-0.0010759170399978757,0.006157760974019766,0.0017302557826042175
1782891073588950500,2.605950439453125,-0.0014716627774760127,0.003962250892072916,0.0018631474813446403
1782891073598972700,2.61597265625,-0.00138084904756397,0.005859753116965294,0.0007968177669681609
1782891073608994800,2.625994873046875,-0.0021936458069831133,0.004817924462258816,0.00140987744089216
1782891073619017700,2.636017822265625,-0.004053863696753979,0.006651244591921568,0.00009640643111197278
1782891073629039600,2.64603955078125,-0.0018764632986858487,0.0083673857152462,-0.0005214469274505973
1782891073639061800,2.656061767578125,-0.003093527862802148,0.005854959599673748,0.0007720504072494805
1782891073649083600,2.666083740234375,-0.0019283948931843042,0.005883188918232918,0.003153448924422264
1782891073659105500,2.67610546875,-0.0024205471854656935,0.005299690645188093,0.0016162724932655692
1782891073669127700,2.686127685546875,-0.0025931198615580797,0.008038751780986786,0.0017273263074457645
1782891073679149600,2.696149658203125,-0.0028810077346861362,0.006743390113115311,0.003896737238392234
1782891073689171500,2.70617138671875,-0.003299922915175557,0.007681888062506914,0.001669003046117723
1782891073699193600,2.716193603515625,-0.0034104441292583942,0.0027201527263969183,0.0013675332302227616
1782891073709215700,2.7262158203125,-0.0036549223586916924,0.007593204732984304,0.0014716627774760127
1782891073719237600,2.736237548828125,-0.002183792181313038,0.007259510923177004,0.001787779969163239
1782891073729259800,2.746259765625,-0.0022442457266151905,0.0057526943273842335,0.002907639369368553
1782891073739281700,2.75628173828125,-0.0010346380295231938,0.006187055725604296,-0.00010120012302650139
1782891073749304600,2.7663046875,-0.0036517265252768993,0.007742342073470354,0.0007363640470430255
1782891073759326700,2.77632666015625,0.00040986048406921327,0.006275472696870565,0.0051806471310555935
1782891073769348600,2.7863486328125,-0.000892425247002393,0.007494401652365923,0.0004444815858732909
1782891073779370500,2.79637060546875,-0.0015560849569737911,0.006798783782869577,0.0017957695527002215
1782891073789392600,2.806392578125,0.00041625206358730793,0.005583050660789013,0.005446430761367083
1782891073799414500,2.81641455078125,-0.0005352954030968249,0.007122091483324766,0.0017515610670670867
1782891073809436700,2.826436767578125,-0.002712695859372616,0.006573480553925037,0.0022008363157510757
1782891073819458800,2.836458740234375,-0.0015017564874142408,0.006996656768023968,0.002386192325502634
1782891073829480700,2.846480712890625,-0.0015132081462070346,0.005018460564315319,0.0011020160745829344
1782891073839502600,2.856502685546875,0.0003981425834354013,0.007565241772681475,0.0006857639527879655
1782891073849524700,2.866524658203125,-0.003138801548629999,0.00589677132666111,0.004295678809285164
1782891073859546600,2.876546630859375,-0.001216265605762601,0.007721036672592163,0.0028064390644431114
1782891073869568500,2.886568603515625,-0.0013811152894049883,0.008685899898409843,-0.00034354778472334146
1782891073879591700,2.896591796875,-0.002674079965800047,0.006110356654971838,-0.0001994707708945498
1782891073889613600,2.906613525390625,0.00037230990710668266,0.004896488040685654,0.0027334685437381268
1782891073899635500,2.916635498046875,-0.0030365362763404846,0.007361776195466518,0.0028357338160276413
1782891073909657600,2.92665771484375,0.0003384877636563033,0.006659500766545534,0.0033832797780632973
1782891073919679700,2.9366796875,-0.001190166687592864,0.00737296137958765,0.0010663296561688185
1782891073929701600,2.94670166015625,-0.0023470439482480288,0.008188420906662941,0.0013491574209183455
1782891073939723800,2.956723876953125,0.0004082625964656472,0.006220345385372639,0.002657035831362009
1782891073949745700,2.96674560546875,0.000027963191314483993,0.0028759476263076067,0.0014825817197561264
1782891073959767600,2.976767578125,-0.00024474450037814677,0.007577226031571627,0.0006697850185446441
1782891073969789700,2.986789794921875,-0.0027893949300050735,0.005656021647155285,0.0031667647417634726
1782891073979811600,2.9968115234375,0.0002950782363768667,0.00492125516757369,0.0009590042755007744
1782891073989833500,3.00683349609375,0.0013523531379178166,0.005234176758676767,0.002540122950449586
1782891073999855600,3.016855712890625,-0.0033896714448928833,0.006478938274085522,0.0025422535836696625
1782891074009878500,3.02687841796875,-0.003082609036937356,0.007249390706419945,0.002606702037155628
1782891074019900700,3.036900634765625,-0.0018804579740390182,0.006524478085339069,0.0010183927370235324
1782891074029922800,3.0469228515625,-0.0025917883031070232,0.007153517100960016,0.0016287893522530794
1782891074039944700,3.05694482421875,0.0006588660762645304,0.007919175550341606,0.0010974886827170849
1782891074049966600,3.066966552734375,-0.00010466222738614306,0.008893360383808613,0.0034677020739763975
1782891074059988700,3.07698876953125,0.000483363721286878,0.007577492389827967,0.0008937568636611104
1782891074070010600,3.0870107421875,-0.0013555489713326097,0.006749249063432217,-0.0006431533838622272
1782891074080032500,3.097032470703125,0.0008466189028695226,0.0049646650440990925,-0.0003507383225951344
1782891074090054400,3.107054443359375,-0.0011235876008868217,0.00631994754076004,0.002413356676697731
1782891074100076800,3.117076904296875,-0.0008492820779792964,0.007221959996968508,0.000919323181733489
1782891074110098700,3.1270986328125,0.000404534162953496,0.006764429155737162,0.00250550196506083
1782891074120120600,3.13712060546875,-0.0024170849937945604,0.006272010505199432,0.001883387565612793
1782891074130143000,3.14714306640625,-0.000827177835162729,0.006642988882958889,0.0018016285030171275
1782891074140166000,3.157165771484375,0.000642354425508529,0.003925765864551067,0.0004370247188489884
1782891074150188000,3.16718798828125,0.00025353292585350573,0.003323625074699521,0.003704457078129053
1782891074160210000,3.1772099609375,-0.0010705908061936498,0.008942894637584686,0.0012599414912983775
1782891074170231800,3.187231689453125,-0.003552656853571534,0.007034739945083857,0.0022069616243243217
1782891074180254000,3.19725390625,-0.0013393036788329482,0.005072789266705513,0.0019896477460861206
1782891074190275800,3.20727587890625,-0.0014988270122557878,0.006688529159873724,-0.0022682142443954945
1782891074200297700,3.217297607421875,0.0011283813510090113,0.003183542750775814,0.0024048343766480684
1782891074210320000,3.22731982421875,-0.0006886934279464185,0.007766043767333031,0.0010817759903147817
1782891074220342000,3.237342041015625,-0.0012516856659203768,0.007476824801415205,0.0011675298446789384
1782891074230364000,3.247364013671875,0.00048389637959189713,0.0046181874349713326,0.003485811408609152
1782891074240385800,3.2573857421875,0.0009843043517321348,0.005525260232388973,0.002374474424868822
1782891074250408000,3.267407958984375,-0.0018042916199192405,0.007476558443158865,0.002189384773373604
1782891074260429800,3.277429931640625,-0.0023374564480036497,0.0067814732901751995,0.0020271982066333294
1782891074270453000,3.287452880859375,-0.0022442457266151905,0.007925034500658512,0.0023012375459074974
1782891074280475000,3.297474853515625,-0.0005390237784013152,0.0070528495125472546,0.0029228192288428545
1782891074290496800,3.307496826171875,0.0009086705395020545,0.006912234704941511,-0.00005512743518920615
1782891074300519000,3.317518798828125,0.00045060686534270644,0.007129015866667032,0.0006953513366170228
1782891074310540800,3.327540771484375,-0.003102849004790187,0.007940747775137424,0.0000351537273672875
1782891074320563000,3.33756298828125,-0.0012918994762003422,0.007416637148708105,0.0021574266720563173
1782891074330584800,3.347584716796875,-0.00028389296494424343,0.005827795248478651,0.0008319715270772576
1782891074340607000,3.35760693359375,0.001874332781881094,0.006179066374897957,0.0033068470656871796
1782891074350628900,3.36762890625,-0.0033723609521985054,0.006536462344229221,0.0025939189363271
1782891074360650800,3.377650634765625,-0.0001984054979402572,0.004067179746925831,0.0015385081060230732
1782891074370673000,3.3876728515625,-0.0013771206140518188,0.008346879854798317,-0.000005326322025211994
1782891074380694800,3.39769482421875,0.000035686356568476185,0.00697828084230423,0.001586178783327341
1782891074390716700,3.407716552734375,-0.0004367584188003093,0.004486893769353628,0.002042910782620311
1782891074400739800,3.41773974609375,-0.0017843178939074278,0.008015582337975502,0.001561677665449679
1782891074410761700,3.42776171875,-0.0031531827989965677,0.0056925066746771336,0.0029047098942101
1782891074420783900,3.437783935546875,0.0002436792419757694,0.005051217507570982,0.003096990054473281
1782891074430806000,3.447805908203125,-0.00279099284671247,0.007977765053510666,0.0005121259018778801
1782891074440828000,3.457827880859375,-0.0022367890924215317,0.009816145524382591,0.0011526161106303334
1782891074450849800,3.467849853515625,-0.0018181400373578072,0.007741542998701334,-0.0011968245962634683
1782891074460872000,3.477871826171875,0.0010687265312299132,0.006250705569982529,0.0025507756508886814
1782891074470893800,3.487893798828125,-0.00018375810759607702,0.00669305631890893,0.00122558674775064
1782891074480915700,3.497915771484375,-0.0006980145117267966,0.006107959896326065,-0.00016005597717594355
1782891074490937900,3.507937744140625,-0.0012298477813601494,0.008282430469989777,-0.0000066579027588886674
1782891074500960000,3.5179599609375,-0.0021193434949964285,0.009800166822969913,0.0006370281334966421
1782891074510982000,3.52798193359375,-0.0012924320762977004,0.006430734880268574,0.0007456850726157427
1782891074521004000,3.538004150390625,-0.0012982910266146064,0.005685050040483475,0.0026343988720327616
1782891074531027000,3.54802685546875,0.00024234765442088246,0.006472546607255936,-0.0024655545130372047
1782891074541048800,3.558048828125,0.0007147924043238163,0.008825449272990227,-0.00009054747351910919
1782891074551071000,3.568071044921875,-0.0005789712304249406,0.00694978516548872,0.0027174896094948053
1782891074561092900,3.5780927734375,-0.002923884429037571,0.006369215901941061,0.002630936913192272
1782891074571114800,3.58811474609375,0.000746750389225781,0.006479204632341862,0.0008082693675532937
1782891074581137000,3.598136962890625,-0.0030466562602669,0.007333280518651009,0.0007129282457754016
1782891074591158800,3.60815869140625,-0.0013560815714299679,0.006445914972573519,-0.0001805623178370297
1782891074601180700,3.6181806640625,-0.002520682057365775,0.006943926215171814,0.0004106594424229115
1782891074611203000,3.628203125,-0.0007243797881528735,0.010075803846120834,0.0007936219917610288
1782891074621225000,3.638224853515625,-0.0008769789128564298,0.008561530150473118,0.0021960425656288862
1782891074631246800,3.648246826171875,-0.0009462211164645851,0.0049737198278307915,0.002430667169392109
1782891074641269000,3.65826904296875,0.00032197617110796273,0.0067814732901751995,0.0019094864837825298
1782891074651291000,3.668290771484375,-0.002175003755837679,0.006041114684194326,0.001344363670796156
1782891074661312800,3.678312744140625,-0.0008399609941989183,0.007187339011579752,-0.00045087316539138556
1782891074671336000,3.6883359375,-0.0008972189389169216,0.005331382155418396,0.002712695859372616
1782891074681357800,3.69835791015625,-0.002627208363264799,0.006670153234153986,0.002091380301862955
1782891074691379700,3.708379638671875,-0.0024700819049030542,0.0073418025858700275,0.0009922938188537955
1782891074701401900,3.71840185546875,-0.0005576659459620714,0.006677343975752592,0.0007443535141646862
1782891074711424000,3.728424072265625,-0.0021848573815077543,0.007934356108307838,-0.0009353021741844714
1782891074721446000,3.73844580078125,-0.002797118155285716,0.008274707943201065,0.0012431635987013578
1782891074731468000,3.748468017578125,-0.001574194524437189,0.00487278588116169,-0.0015688681742176414
1782891074741490000,3.758489990234375,-0.001023186487145722,0.006045641843229532,-0.0007981493836268783
1782891074751511800,3.76851171875,0.001279116258956492,0.006143912672996521,0.0008609999786131084
1782891074761534000,3.778533935546875,-0.003698331769555807,0.006281598005443811,-0.0011435613268986344
1782891074771555800,3.788555908203125,-0.003637877991423011,0.008433965034782887,0.0026173547375947237
1782891074781577700,3.79857763671875,-0.0016056197928264737,0.006990531459450722,-0.00007110639853635803
1782891074791601000,3.808600830078125,-0.002371278591454029,0.0055002267472445965,0.004333229269832373
1782891074801622800,3.818622802734375,-0.002528138691559434,0.00558065390214324,0.0025798040442168713
1782891074811644700,3.828644775390625,-0.0013464941876009107,0.0057383133098483086,0.0013845774810761213
1782891074821667000,3.8386669921875,0.00017310546536464244,0.0051683965139091015,0.0017688715597614646
1782891074831689000,3.84868896484375,-0.0024711471050977707,0.00714632635936141,0.0010724549647420645
1782891074841710800,3.8587109375,-0.0008873652550391853,0.00638013519346714,0.004006725735962391
1782891074851733000,3.86873291015625,-0.0010378338629379869,0.006048837676644325,-0.00045673211570829153
1782891074861755000,3.8787548828125,-0.0024833977222442627,0.0068267472088336945,0.003921770956367254
1782891074871776800,3.88877685546875,0.0002644518972374499,0.006228867452591658,0.0026021746452897787
1782891074881799000,3.898798828125,-0.0022117553744465113,0.007761782966554165,0.002638659905642271
1782891074891820800,3.90882080078125,-0.0017014936311170459,0.00860121101140976,-0.0008532768115401268
1782891074901841000,3.9188408203125,-0.00027031084755435586,0.004881840664893389,0.00148151651956141
1782891074911862800,3.92886279296875,-0.001862614881247282,0.006371879018843174,0.00036964676110073924
1782891074921884700,3.938884765625,-0.0022178804501891136,0.009396431036293507,0.0005515406373888254
1782891074931906800,3.94890673828125,-0.0036770266015082598,0.007979096844792366,-0.000690291344653815
1782891074941929000,3.958928955078125,-0.0002735066518653184,0.0070800138637423515,-0.0007848335662856698
1782891074951950800,3.968950927734375,-0.0016250609187409282,0.006858971435576677,0.002365685999393463
1782891074961974000,3.97897412109375,-0.0012058793799951673,0.008321845903992653,-0.0016761935548856854
1782891074971996000,3.988995849609375,-0.0011885687708854675,0.005991845857352018,0.0023763386998325586
1782891074982018000,3.99901806640625,-0.0025039040483534336,0.007160174660384655,0.00032437301706522703
1782891074992040000,4.0090400390625,-0.003372893435880542,0.007933557033538818,0.0023752732668071985
1782891075002061800,4.019061767578125,-0.002965962514281273,0.007502923719584942,0.0003195793251506984
1782891075012083700,4.029083740234375,-0.001603489276021719,0.0065468489192426205,0.001374723738990724
1782891075022105900,4.03910595703125,-0.0025094966404139996,0.008101335726678371,0.0005001416429877281
1782891075032127700,4.049127685546875,-0.003162770066410303,0.006042446009814739,0.001541171339340508
1782891075042150000,4.05914990234375,0.00010998855577781796,0.002980609890073538,0.0024650217965245247
1782891075052172000,4.069172119140625,-0.0006348976166918874,0.00755112711340189,0.00472577940672636
1782891075062194000,4.07919384765625,0.0009086705395020545,0.004570783115923405,0.002984072081744671
1782891075072215800,4.0892158203125,-0.002754773711785674,0.0082115912809968,0.0022602248936891556
1782891075082238000,4.099238037109375,-0.0038392129354178905,0.0070730894804000854,0.0005350290448404849
1782891075092260900,4.1092607421875,-0.00005379585491027683,0.005876531358808279,0.0008080030675046146
1782891075102282800,4.11928271484375,0.00009933590627042577,0.0057678744196891785,0.0025334651581943035
1782891075112305000,4.129304931640625,-0.0027739484794437885,0.007108243182301521,0.002035187790170312
1782891075122326800,4.139326904296875,-0.0015595471486449242,0.006335660349577665,0.0026040389202535152
1782891075132348400,4.149348388671875,-0.0030426615849137306,0.008097074925899506,0.0022895196452736855
1782891075142370600,4.15937060546875,-0.0018852517241612077,0.0056951697915792465,0.0015813850332051516
1782891075152392400,4.169392333984375,-0.0001877528557088226,0.005780923645943403,0.002242914168164134
1782891075162414300,4.179414306640625,-0.0006668555433861911,0.008105862885713577,-0.0025925873778760433
1782891075172436500,4.1894365234375,-0.0018466358305886388,0.00475534051656723,0.0009289105655625463
1782891075182458400,4.199458251953125,-0.0011496866354718804,0.006932474672794342,0.0020879183430224657
1782891075192480300,4.209480224609375,0.00047643951256759465,0.0075724320486187935,0.0009648632840253413
1782891075202502400,4.21950244140625,0.00019254654762335122,0.007130081299692392,0.0005494101205840707
1782891075212524300,4.229524169921875,-0.0015624766238033772,0.006126069463789463,0.0009856359101831913
1782891075222547500,4.23954736328125,-0.002508697798475623,0.009795372374355793,0.0011379687348380685
1782891075232569300,4.2495693359375,-0.0030216225422918797,0.007345264777541161,0.000009054747351910919
1782891075242591500,4.259591552734375,-0.0006815029191784561,0.006192648317664862,-0.0016298545524477959
1782891075252613400,4.26961328125,-0.0005060005933046341,0.0071039823815226555,0.00267674308270216
1782891075262635500,4.279635498046875,-0.0015451660146936774,0.0068419273011386395,0.002214152133092284
1782891075272659200,4.2896591796875,0.0005073322099633515,0.006283195689320564,-0.00046818371629342437
1782891075282681300,4.299681396484375,-0.00242161238566041,0.006232329644262791,0.0011467571603134274
1782891075292703500,4.309703369140625,-0.0005091963685117662,0.007640342693775892,0.0015502260066568851
1782891075302725400,4.319725341796875,-0.00041571943438611925,0.0068033114075660706,0.0011592740193009377
1782891075312748500,4.32974853515625,-0.0036719664931297302,0.0062243398278951645,0.0005273058777675033
1782891075322770400,4.3397705078125,-0.003032541600987315,0.007398527581244707,0.00088976213010028
1782891075332792600,4.34979248046875,-0.00281975488178432,0.005983323790132999,0.0015939018921926618
1782891075342814500,4.359814453125,-0.0006652576266787946,0.005510879214853048,0.0011614045361056924
1782891075352836400,4.36983642578125,-0.0003909520455636084,0.00535561703145504,0.00011132013605674729
1782891075362858500,4.3798583984375,0.0006727144937030971,0.003926032222807407,0.004157727118581533
1782891075372880400,4.38988037109375,-0.003067961661145091,0.0068360683508217335,0.00036911413189955056
1782891075382902300,4.39990234375,-0.001814677962101996,0.007465373259037733,0.0024623586796224117
1782891075392924400,4.40992431640625,-0.002374740783125162,0.00395825644955039,0.001945439144037664
1782891075402946600,4.419946533203125,-0.002347842790186405,0.007741010282188654,0.0017947042360901833
1782891075412968400,4.429968505859375,0.0012863067677244544,0.005145227070897818,-0.0008761800127103925
1782891075422990300,4.439990234375,-0.001332912128418684,0.008851548656821251,0.0004522047529462725
1782891075433012500,4.450012451171875,-0.003597131697461009,0.006922354456037283,-0.000010120012120751198
1782891075443035400,4.460035400390625,-0.002493251347914338,0.007335943635553122,0.0018511632224544883
1782891075453057500,4.4700576171875,-0.00006764429417671636,0.004269846249371767,0.0009534116834402084
1782891075463079400,4.480079345703125,-0.0007760451408103108,0.005862948950380087,0.0010788465151563287
1782891075473101300,4.490101318359375,0.00047617321251891553,0.007047789636999369,0.0012210593558847904
1782891075483123200,4.500123291015625,-0.0033875408116728067,0.007695736363530159,0.00112438655924052
1782891075493145300,4.510145263671875,-0.003276220755651593,0.009853163734078407,0.000017843178284238093
1782891075503167500,4.52016748046875,-0.0020277309231460094,0.0056799896992743015,0.001961418194696307
1782891075513189400,4.530189453125,-0.0014990933705121279,0.005422195885330439,0.002469549188390374
1782891075523211500,4.54021142578125,-0.00040986048406921327,0.005044293589890003,0.00019867181254085153
1782891075533233400,4.5502333984375,-0.0005587312043644488,0.005306082312017679,0.00227833422832191
1782891075543255300,4.56025537109375,-0.0020604876335710287,0.005906624719500542,0.0023433153983205557
1782891075553277400,4.57027734375,-0.003693005535751581,0.006967362016439438,0.001731320982798934
1782891075563300400,4.58030029296875,-0.000660463934764266,0.005826996639370918,0.0037646444980055094
1782891075573322500,4.590322509765625,-0.002222674200311303,0.005788380745798349,0.0021489046048372984
1782891075583344400,4.600344482421875,-0.0018631474813446403,0.007223291788250208,0.0019462381023913622
1782891075593366300,4.6103662109375,-0.0015313175972551107,0.008808671496808529,0.00004340952364145778
1782891075603388400,4.620388427734375,0.0010756507981568575,0.005930060520768166,0.002130528911948204
1782891075613410600,4.63041064453125,0.00018189390539191663,0.006281065288931131,0.002400573343038559
1782891075623432400,4.640432373046875,-0.004225637763738632,0.008431301452219486,-0.00017843178648035973
1782891075633454300,4.650454345703125,-0.001240766723640263,0.006728742737323046,-0.00108257494866848
1782891075643476500,4.6604765625,-0.0008543420699425042,0.006797985173761845,0.0028937908355146646
1782891075653498400,4.670498291015625,0.00047830372932367027,0.00520647969096899,0.002406165935099125
1782891075663520300,4.680520263671875,-0.0015012238873168826,0.006983074825257063,0.0012998889433220029
1782891075673542400,4.69054248046875,-0.002356897573918104,0.0037385455798357725,-0.0011092065833508968
1782891075683565300,4.7005654296875,-0.0021430456545203924,0.007697867229580879,0.000690291344653815
1782891075693587200,4.710587158203125,0.0012279836228117347,0.006806507240980864,0.0016682040877640247
1782891075703609300,4.720609375,0.0015366439474746585,0.005494900047779083,0.001374723738990724
1782891075713631500,4.730631591796875,-0.0022801985032856464,0.008843292482197285,0.003946005832403898
1782891075723653400,4.7406533203125,-0.0031883365008980036,0.008769256994128227,0.0005928196478635073
1782891075733675500,4.750675537109375,0.00010759170982055366,0.006569485645741224,0.0011270497925579548
1782891075743697400,4.760697509765625,-0.00007776429993100464,0.006088252644985914,0.0021544971968978643
1782891075753719300,4.77071923828125,-0.0012825783342123032,0.006853378843516111,0.0007227819296531379
1782891075763741400,4.780741455078125,-0.002296443795785308,0.007125287316739559,0.0037438718136399984
1782891075773763300,4.790763427734375,0.00045833003241568804,0.008445416577160358,0.0012247877893969417
1782891075783785200,4.80078515625,-0.0008239820599555969,0.004736964590847492,-0.0008881642133928835
1782891075793807600,4.8108076171875,-0.0015699334908276796,0.005081044975668192,0.002374208066612482
1782891075803829500,4.82082958984375,-0.001303351018577814,0.004403004422783852,0.000642620783764869
1782891075813851400,4.830851318359375,-0.0009922938188537955,0.007309844717383385,0.0018421085551381111
1782891075823874600,4.84087451171875,-0.0028764803428202868,0.005936718545854092,0.0009829727932810783
1782891075833896400,4.850896484375,-0.0005067995516583323,0.007957791909575462,0.0014969628537073731
1782891075843918300,4.86091845703125,-0.0019060244085267186,0.005860285833477974,0.0021523667965084314
1782891075853940500,4.8709404296875,-0.0009129316313192248,0.006597981322556734,-0.0007041397620923817
1782891075863962400,4.88096240234375,-0.001621066126972437,0.006731139495968819,-0.0003736414946615696
1782891075873984300,4.890984375,-0.0005203816690482199,0.006499444600194693,0.0005536712124012411
1782891075884006400,4.90100634765625,-0.0005587312043644488,0.005931125953793526,0.0020359866321086884
1782891075894028500,4.911028564453125,-0.004493019077926874,0.00652660895138979,0.0015670040156692266
1782891075904050400,4.921050537109375,-0.0022953785955905914,0.0067601678892970085,0.0022509037517011166
1782891075914072600,4.931072509765625,-0.0014181332662701607,0.003572896821424365,-0.0006844323943369091
1782891075924094500,4.941094482421875,-0.002386725042015314,0.006761233322322369,0.002754773711785674
1782891075934116400,4.951116455078125,-0.0008127967594191432,0.008816661313176155,0.002877279184758663
1782891075944139500,4.961139404296875,-0.0012548814993351698,0.005311142187565565,0.0036570527590811253
1782891075954161400,4.971161376953125,-0.0013289173366501927,0.004860002547502518,0.0027230822015553713
1782891075964183300,4.981183349609375,0.0007278419216163456,0.006822752300649881,0.002141714096069336
1782891075974205400,4.991205322265625,-0.00256409146822989,0.00624138442799449,0.0016564861871302128
1782891075984227300,5.001227294921875,-0.0005478122038766742,0.006269347388297319,-0.00014034859486855567
1782891075994249200,5.011249267578125,-0.0005320995696820319,0.006717557553201914,0.0020479708909988403
1782891076004271600,5.021271728515625,-0.0011140003334730864,0.004794488660991192,0.003085538512095809
1782891076014293500,5.03129345703125,-0.0018165421206504107,0.00407490273937583,0.0031902005430310965
1782891076024315400,5.0413154296875,-0.00023302659974433482,0.004820588044822216,0.0011598066193982959
1782891076034337500,5.051337646484375,0.00048709215479902923,0.007092530373483896,0.0011768508702516556
1782891076044359400,5.061359375,-0.002442118711769581,0.007750864140689373,0.0018554243724793196
1782891076054381300,5.07138134765625,-0.0000399474156438373,0.004947620443999767,0.002482066163793206
1782891076064403500,5.081403564453125,0.000496945867780596,0.008296012878417969,0.0008191883680410683
1782891076074426400,5.09142626953125,-0.0007848335662856698,0.0068302094005048275,0.0003235740587115288
1782891076084448300,5.1014482421875,-0.001463406952098012,0.005899168085306883,0.001520398654974997
1782891076094470400,5.111470458984375,-0.0021787320729345083,0.005948969163000584,0.0003499393642414361
1782891076104492500,5.121492431640625,-0.0032682311721146107,0.0072925337590277195,-0.001329716295003891
1782891076114514400,5.131514404296875,0.0008287757518701255,0.006359628401696682,0.002689792774617672
1782891076124536600,5.14153662109375,-0.0020999026019126177,0.008709868416190147,0.0017992316279560328
1782891076134558500,5.151558349609375,-0.00523604080080986,0.008217450231313705,0.0016463662032037973
1782891076144580600,5.16158056640625,-0.0009576727170497179,0.005790244787931442,0.0004170510219410062
1782891076154602500,5.1716025390625,-0.003608583239838481,0.006615292280912399,0.0016247945604845881
1782891076164624400,5.181624267578125,-0.0007073355955071747,0.0016884441720321774,-0.0007371630053967237
1782891076174646500,5.191646484375,-0.0015164038632065058,0.008919458836317062,0.0007803061744198203
1782891076184668400,5.20166845703125,-0.0022186795249581337,0.0067599015310406685,-0.00037630466977134347
1782891076194690600,5.211690673828125,-0.0026993800420314074,0.007650196552276611,0.0033278861083090305
1782891076204713500,5.22171337890625,-0.0017803232185542583,0.005863481666892767,0.0029707562644034624
1782891076214735600,5.231735595703125,-0.0026343988720327616,0.007955394685268402,0.0018945727497339249
1782891076224757500,5.241757568359375,-0.0002825613773893565,0.00498011102899909,0.0011914982460439205
1782891076234779600,5.251779541015625,-0.002115348819643259,0.00506932707503438,-0.0016982977977022529
1782891076244801500,5.261801513671875,-0.0025300029665231705,0.006153766065835953,0.002688727341592312
1782891076254823400,5.271823486328125,-0.0021971079986542463,0.006382798310369253,0.0019403791520744562
1782891076264845600,5.281845458984375,-0.0020088222809135914,0.005285043269395828,0.000021305288100847974
1782891076274867500,5.291867431640625,-0.0004551342281047255,0.00569889834150672,0.00130894361063838
1782891076284889300,5.301889404296875,-0.0023869911674410105,0.0075817531906068325,0.0024085629265755415
1782891076294911700,5.311911865234375,-0.0027047062758356333,0.005839513149112463,0.001169394003227353
1782891076304933600,5.32193359375,-0.004379035905003548,0.0060238041914999485,-0.00014274542627390474
1782891076314955500,5.33195556640625,-0.0008665926288813353,0.005400624126195908,-0.00012969593808520585
1782891076324978700,5.341978759765625,-0.0016431703697890043,0.0027830032631754875,0.0012085424968972802
1782891076335000600,5.35200048828125,0.00020053602929692715,0.00475427508354187,0.002438656520098448
1782891076345022500,5.3620224609375,-0.0002031991898547858,0.007465639617294073,0.002947852946817875
1782891076355044600,5.372044677734375,-0.002061286708340049,0.0060344566591084,0.0006298375665210187
1782891076365066500,5.38206640625,-0.00290391081944108,0.007308512926101685,-0.001264735241420567
1782891076375088400,5.39208837890625,-0.0011121360585093498,0.006599579472094774,0.0011025486746802926
1782891076385110500,5.402110595703125,0.0025153555907309055,0.004542287439107895,0.0038160434924066067
1782891076395132400,5.41213232421875,-0.00236249016597867,0.005290902219712734,0.004564125556498766
1782891076405154600,5.422154541015625,-0.001252750982530415,0.008886702358722687,0.0010029464028775692
1782891076415176700,5.4321767578125,-0.0012319782981649041,0.00896899402141571,0.0017694041598588228
1782891076425198600,5.442198486328125,-0.0025574336759746075,0.00592500064522028,-0.0010165285784751177
1782891076435220500,5.452220458984375,0.00042876892257481813,0.007252852898091078,0.001927862293086946
1782891076445242600,5.46224267578125,-0.0015672702575102448,0.004826180636882782,0.0009166600648313761
1782891076455265500,5.472265625,0.00029081720276735723,0.0070733558386564255,0.0023523701820522547
1782891076465287400,5.482287353515625,0.00012596751912496984,0.007191600278019905,0.0033904702868312597
1782891076475309600,5.4923095703125,-0.0013393036788329482,0.005498095881193876,0.000773381965700537
1782891076485331500,5.50233154296875,-0.0014181332662701607,0.0067633637227118015,0.0007360977469943464
1782891076495353300,5.512353271484375,-0.0013688647886738181,0.00634870957583189,0.0006511429091915488
1782891076505375700,5.522375732421875,-0.0027020431589335203,0.006776946131139994,0.00253399764187634
1782891076515397600,5.532397705078125,-0.0006018743733875453,0.006844324059784412,0.0021022993605583906
1782891076525419500,5.54241943359375,-0.0007896272582001984,0.00755006168037653,0.0024469124618917704
1782891076535441700,5.552441650390625,-0.00162426196038723,0.005907157436013222,0.0026346652302891016
1782891076545463600,5.562463623046875,-0.0035289546940475702,0.00603472301736474,0.0031995216850191355
1782891076555485400,5.5724853515625,-0.0016532903537154198,0.0034876756835728884,0.0016141419764608145
1782891076565507600,5.582507568359375,-0.0005898901727050543,0.007742874324321747,0.00019467707898002118
1782891076575530500,5.592530517578125,-0.00003941478280466981,0.006505569908767939,0.002011219272390008
1782891076585552400,5.602552490234375,0.0014064153656363487,0.0028370653744786978,0.0020298613235354424
1782891076595574500,5.612574462890625,0.0007470166892744601,0.006168679799884558,0.0008428904693573713
1782891076605596400,5.622596435546875,-0.0007416903390549123,0.006639526691287756,0.00333267985843122
1782891076615618600,5.63261865234375,-0.002237854292616248,0.004891428165137768,0.001895105466246605
1782891076625640700,5.642640625,-0.001047687605023384,0.0073138391599059105,0.002159557305276394
1782891076635662600,5.65266259765625,0.0010732539230957627,0.004546015989035368,0.0019025622168555856
1782891076645684500,5.6626845703125,-0.0019680759869515896,0.005766808986663818,0.002380599733442068
1782891076655706600,5.67270654296875,-0.0024471788201481104,0.006897853687405586,0.002281263703480363
1782891076665728500,5.682728515625,-0.0019084211671724916,0.007785485126078129,0.003828826593235135
1782891076675750400,5.69275048828125,-0.00013502225920092314,0.00484349112957716,-0.000021305288100847974
1782891076685772500,5.7027724609375,-0.0024980450980365276,0.00628905463963747,0.0014506238512694836
1782891076695794700,5.712794677734375,-0.0008594020619057119,0.006195311434566975,0.002088983543217182
1782891076705817300,5.7228173828125,-0.001939846551977098,0.007733020931482315,-0.00003328951424919069
1782891076715839700,5.73283984375,-0.0017651431262493134,0.005736182443797588,7.989483492565341e-7
1782891076725861600,5.742861572265625,-0.0011819108622148633,0.006076534744352102,0.002124403603374958
1782891076735883500,5.752883544921875,-0.0013435647124424577,0.007961253635585308,-0.0014303837670013309
1782891076745905700,5.76290576171875,-0.0016556872287765145,0.007457383442670107,0.0016077503096312284
1782891076755927600,5.772927490234375,-0.0007076018955558538,0.006238987669348717,0.0023454460315406322
1782891076765949400,5.782949462890625,-0.0021579593885689974,0.007016364019364119,0.0006554039428010583
1782891076775971600,5.7929716796875,-0.0011821772204712033,0.007349791936576366,0.0009765811264514923
1782891076785993500,5.802993408203125,-0.0011171960504725575,0.005911951418966055,0.00270657055079937
1782891076796015600,5.813015625,-0.003656520042568445,0.0068155620247125626,0.0003504719934426248
1782891076806037500,5.82303759765625,-0.0032080437522381544,0.006583866663277149,0.0035481294617056847
1782891076816059600,5.8330595703125,-0.0008982842555269599,0.008494418114423752,-0.0001781654718797654
1782891076826081500,5.84308154296875,-0.0008311725687235594,0.005014732480049133,0.0014181332662701607
1782891076836104700,5.853104736328125,-0.0019006980583071709,0.006599579472094774,0.0010365023044869304
1782891076846126600,5.863126708984375,-0.0026969832833856344,0.005943642929196358,-0.0015595471486449242
1782891076856148500,5.8731484375,-0.0018093516118824482,0.006310360040515661,0.0017193368403241038
1782891076866170600,5.883170654296875,-0.00033955302205868065,0.007439007982611656,0.0028245486319065094
1782891076876192500,5.893192626953125,0.00032384038786403835,0.009486712515354156,0.002490854589268565
1782891076886214400,5.90321435546875,-0.0005467469454742968,0.005400890484452248,0.0006141249323263764
1782891076896236500,5.913236572265625,-0.0004948153509758413,0.005113002844154835,0.001446362817659974
1782891076906258700,5.9232587890625,-0.0032831449061632156,0.010072341188788414,0.0010495517635717988
1782891076916280600,5.933280517578125,-0.0029798108153045177,0.005664010997861624,0.003568103304132819
1782891076926302500,5.943302490234375,-0.003668504301458597,0.006120743229985237,-0.00020000340009573847
1782891076936324600,5.95332470703125,-0.0015345134306699038,0.00965635571628809,0.002183525823056698
1782891076946346500,5.963346435546875,-0.001609348226338625,0.004310326185077429,0.0019853864796459675
1782891076956369700,5.97336962890625,-0.0005539375124499202,0.007005178835242987,-0.0000756337758502923
1782891076966391600,5.9833916015625,-0.0018556906143203378,0.0062395199202001095,0.0014330470003187656
1782891076976413400,5.993413330078125,-0.0019768644124269485,0.005175320897251368,0.00009720538218971342
1782891076986435600,6.003435546875,-0.00045833003241568804,0.0025515747256577015,0.0010705908061936498
1782891076996457500,6.01345751953125,-0.0012713931500911713,0.00868909526616335,0.003460511565208435
1782891077006479600,6.023479736328125,-0.0021427792962640524,0.007366569712758064,0.0019257317762821913
1782891077016501500,6.03350146484375,-0.004789695143699646,0.00618279492482543,0.0012301141396164894
1782891077026523600,6.043523681640625,-0.0014759238110855222,0.006670952308923006,-0.00043809000635519624
1782891077036545500,6.053545654296875,-0.001683384063653648,0.007042197044938803,0.0026375947054475546
1782891077046567400,6.0635673828125,-0.0017662084428593516,0.0073018549010157585,0.0023001721128821373
1782891077056589600,6.073589599609375,-0.0009294432238675654,0.006318083498626947,0.00022024342615623027
1782891077066611500,6.083611572265625,-0.00020932445477228612,0.0070797475054860115,0.002071140334010124
1782891077076633300,6.09363330078125,-0.0011704593198373914,0.004667988512665033,-0.001187503570690751
1782891077086656500,6.103656494140625,-0.0010575412306934595,0.0059572248719632626,0.0017145430902019143
1782891077096678400,6.113678466796875,0.0010692591313272715,0.008291485719382763,0.001160072977654636
1782891077106700500,6.123700439453125,0.0004058657505083829,0.005957757588475943,0.003489806316792965
1782891077116722700,6.13372265625,-0.0029736857395619154,0.0076243639923632145,0.0005289037944748998
1782891077126744600,6.14374462890625,-0.002606435678899288,0.007488276343792677,0.0038434739690274
1782891077136766700,6.1537666015625,-0.0019044264918193221,0.005441637244075537,0.0026341325137764215
1782891077146788600,6.16378857421875,-0.00018322547839488834,0.005858155433088541,0.002749181119725108
1782891077156810500,6.173810546875,-0.001704689348116517,0.006835535634309053,0.0011004181578755379
1782891077166832600,6.18383251953125,-0.0016727314796298742,0.006729541812092066,0.0038064562249928713
1782891077176854500,6.1938544921875,-0.0009217200567945838,0.00498144282028079,-0.0006348976166918874
1782891077186876400,6.20387646484375,-0.0011464908020570874,0.006797985173761845,0.002433330286294222
1782891077196898800,6.21389892578125,-0.003472495824098587,0.006126868538558483,-0.00031558459158986807
1782891077206921500,6.22392138671875,-0.0005560680292546749,0.006326605565845966,0.00023702133330516517
1782891077216943600,6.233943603515625,-0.0013044163351878524,0.005916744936257601,0.0020652813836932182
1782891077226965800,6.2439658203125,0.00020240024605300277,0.0062637547962367535,0.0019406455103307962
1782891077236987600,6.253987548828125,-0.0001001348573481664,0.005050684791058302,0.000999484327621758
1782891077247009500,6.264009521484375,0.0002580603177193552,0.00583871454000473,0.0015624766238033772
1782891077257031700,6.27403173828125,-0.0006825681775808334,0.005711148958653212,0.0010194580536335707
1782891077267053600,6.284053466796875,-0.0010785802733153105,0.006314621306955814,0.0026200178544968367
1782891077277075500,6.294075439453125,0.0003022687742486596,0.00752156600356102,-0.0005744438385590911
1782891077287097600,6.30409765625,-0.0013430321123450994,0.005636846646666527,0.0014234596164897084
1782891077297119700,6.31411962890625,-0.004156661685556173,0.007697334513068199,-0.0005017395596951246
1782891077307141600,6.3241416015625,-0.002088983543217182,0.00646562222391367,0.004838963504880667
1782891077317163800,6.334163818359375,-0.0009914948605000973,0.0065345983020961285,0.0014391721924766898
1782891077327186700,6.344186767578125,-0.0029672940727323294,0.007993744686245918,0.001910285442136228
1782891077337208600,6.35420849609375,-0.0001691107318038121,0.006271477788686752,0.0009797769598662853
1782891077347230700,6.364230712890625,-0.001907089608721435,0.007749265991151333,0.0027297399938106537
1782891077357252600,6.374252685546875,0.0013132047606632113,0.0075513930059969425,0.004560663364827633
1782891077367274500,6.3842744140625,-0.0016871124971657991,0.00612420542165637,-0.0014287859667092562
1782891077377296600,6.394296630859375,-0.0013424995122477412,0.006671485025435686,0.000838895735796541
1782891077387318500,6.404318603515625,-0.0022154836915433407,0.003991013392806053,-0.0006138586322776973
1782891077397340400,6.41434033203125,-0.0018540926976129413,0.008482434786856174,0.003212304785847664
1782891077407362800,6.42436279296875,-0.0025925873778760433,0.005681055132299662,0.0017869811272248626
1782891077417384700,6.434384765625,-0.002335326047614217,0.005264803301542997,0.0005118595436215401
1782891077427406600,6.444406494140625,-0.0034205641131848097,0.004441353492438793,0.0018698053900152445
1782891077437428700,6.4544287109375,-0.0003531351685523987,0.005861617624759674,-0.00013129384024068713
1782891077447450600,6.46445068359375,0.00022210762836039066,0.0062246061861515045,0.0015358449891209602
1782891077457473500,6.4744736328125,-0.00006391586794052273,0.003771568648517132,-0.00025726135936565697
1782891077467495700,6.48449560546875,-0.0017598168924450874,0.006835269276052713,0.002118811011314392
1782891077477517600,6.494517578125,-0.0021313277538865805,0.005345763172954321,0.0008186557097360492
1782891077487539500,6.50453955078125,-0.0020266654901206493,0.0040852888487279415,0.001973136095330119
1782891077497561600,6.5145615234375,-0.003828826593235135,0.01002360600978136,0.004485561978071928
1782891077507583700,6.524583740234375,-0.0005451490869745612,0.007226221263408661,-0.0008942894637584686
1782891077517605600,6.534605712890625,-0.00002103897168126423,0.008314388804137707,0.002031991956755519
1782891077527627800,6.544627685546875,-0.0028597023338079453,0.005141232628375292,0.0017361147329211235
1782891077537649700,6.554649658203125,-0.00313560594804585,0.008296811953186989,0.0005411543534137309
1782891077547671600,6.564671630859375,0.0001978728687390685,0.004448011517524719,-0.00016192019393201917
1782891077557693700,6.574693603515625,-0.0018333201296627522,0.005124987103044987,0.0006668555433861911
1782891077567715600,6.584715576171875,-0.002356098499149084,0.009635848924517632,0.003686880227178335
1782891077577737500,6.594737548828125,-0.0006317017832770944,0.007734352257102728,0.001957689644768834
1782891077587760600,6.6047607421875,-0.00015286543930415064,0.007014499977231026,0.0005073322099633515
1782891077597782500,6.614782470703125,-0.0003563309437595308,0.00475454144179821,0.0023611586075276136
1782891077607804400,6.624804443359375,0.0006061354652047157,0.004910602699965239,0.0024980450980365276
1782891077617826800,6.634826904296875,-0.0016117451013997197,0.006025135517120361,0.002141980454325676
1782891077627848700,6.6448486328125,-0.000431432097684592,0.0076126460917294025,0.002335326047614217
1782891077637870600,6.65487060546875,-0.0011656655697152019,0.006134058814495802,-0.001210406655445695
1782891077647892700,6.664892822265625,-0.0011369034182280302,0.005753759294748306,0.0021795309148728848
1782891077657914600,6.67491455078125,-0.0019299928098917007,0.007662447169423103,0.0007568703731521964
1782891077667936500,6.6849365234375,-0.0032794165890663862,0.0065473816357553005,0.0036914076190441847
1782891077677958700,6.694958740234375,-0.002344380598515272,0.00666429428383708,0.0015808524331077933
1782891077687980500,6.70498046875,-0.0008708536624908447,0.006673615425825119,0.0027835359796881676
1782891077698002700,6.715002685546875,-0.0026101642288267612,0.006642988882958889,0.0013393036788329482
1782891077708024800,6.72502490234375,-0.0010277138790115714,0.00598518829792738,0.0014969628537073731
1782891077718047700,6.7350478515625,-0.0010964233661070466,0.005928729195147753,0.001790975802578032
1782891077728069600,6.745069580078125,-0.0037020600866526365,0.008567122742533684,0.003709783311933279
1782891077738091800,6.755091796875,0.00017204020696226507,0.006555370986461639,0.002493251347914338
1782891077748113700,6.76511376953125,0.0000798948312876746,0.005284244194626808,0.0010490191634744406
1782891077758135600,6.775135498046875,-0.0006756439688615501,0.009333580732345581,0.0015153386630117893
1782891077768157700,6.78515771484375,-0.00224877311848104,0.005601692944765091,0.0013736584223806858
1782891077778179600,6.7951796875,-0.0024383901618421078,0.006283195689320564,0.0013795174891129136
1782891077788201500,6.805201416015625,-0.0015504923649132252,0.007565241772681475,0.0027153589762747288
1782891077798223600,6.8152236328125,-0.0018072210950776935,0.007930893450975418,0.0031241541728377342
1782891077808245800,6.825245849609375,-0.0013752563390880823,0.007487743627279997,0.0037758296821266413
1782891077818267600,6.835267578125,-0.0036964674945920706,0.007641141768544912,0.0015038870042189956
1782891077828289500,6.84528955078125,-0.0007123955874703825,0.007726362906396389,0.001439971150830388
1782891077838312700,6.855312744140625,-0.0019020296167582273,0.006393983494490385,0.000041811628761934116
1782891077848334600,6.86533447265625,-0.0026527747977524996,0.0073418025858700275,0.0017142767319455743
1782891077858356700,6.875356689453125,-0.003599794814363122,0.00768748065456748,0.0023044333793222904
1782891077868378600,6.885378662109375,-0.001844771672040224,0.010030795820057392,0.000669252360239625
1782891077878400500,6.895400390625,-0.0014937670202925801,0.008216118440032005,0.0016170714516192675
1782891077888422700,6.905422607421875,0.001085770782083273,0.005204082932323217,-0.00023382554354611784
1782891077898444500,6.915444580078125,-0.0024234766606241465,0.005131911486387253,0.00013608753215521574
1782891077908466700,6.925466796875,-0.0011065434664487839,0.007781756576150656,-0.0014692660188302398
1782891077918488800,6.93548876953125,-0.0004237089306116104,0.008581770583987236,0.0002985403698403388
1782891077928510700,6.9455107421875,-0.0021462414879351854,0.006037386134266853,0.001204547705128789
1782891077938532600,6.95553271484375,-0.0012724583502858877,0.007951133884489536,0.0030024477746337652
1782891077948554500,6.965554443359375,-0.0016474314033985138,0.008559399284422398,-0.00016325176693499088
1782891077958577700,6.97557763671875,-0.002400573343038559,0.006424609571695328,0.0011851066956296563
1782891077968599600,6.985599609375,0.0002055960358120501,0.005904494319111109,0.0010663296561688185
1782891077978621700,6.99562158203125,-0.003233343828469515,0.0054573495872318745,0.0005219795857556164
1782891077988643600,7.0056435546875,-0.0009403621661476791,0.0037800907157361507,0.0034759577829390764
1782891077998665500,7.01566552734375,-0.000919323181733489,0.0035049861762672663,0.00159470085054636
1782891078008687600,7.0256875,-0.001172323478385806,0.006929545197635889,0.0029494508635252714
1782891078018709800,7.035709716796875,-0.0023529028985649347,0.007299990858882666,0.001085504423826933
1782891078028731600,7.045731689453125,-0.0017686053179204464,0.007286408916115761,0.0033182986080646515
1782891078038753500,7.05575341796875,-0.001246892032213509,0.00678227236494422,0.0038309572264552116
1782891078048775700,7.065775634765625,0.0004415521107148379,0.007397728972136974,-0.004610198084264994
1782891078058797600,7.075797607421875,-0.0008247809601016343,0.005331914871931076,0.0032056469935923815
1782891078068819500,7.0858193359375,0.0006154565489850938,0.007333546411246061,-0.000041278995922766626
1782891078078841600,7.095841552734375,0.0008098672842606902,0.005534581374377012,0.002039981307461858
1782891078088864500,7.105864501953125,-0.000627973407972604,0.007358846720308065,-0.00014221279707271606
1782891078098886700,7.11588671875,-0.004061054438352585,0.006628341507166624,0.0034205641131848097
1782891078108908500,7.125908447265625,-0.000916393706575036,0.007967378944158554,-0.0007448861724697053
1782891078118930700,7.1359306640625,-0.00044767739018425345,0.004870655480772257,0.0017451694002375007
1782891078128952600,7.14595263671875,0,0.008259261026978493,-0.0004386226355563849
1782891078138974500,7.155974365234375,0.0004767058417201042,0.0062645538710057735,0.0011491540353745222
1782891078148996600,7.16599658203125,0.0001430117554264143,0.005584648810327053,0.0016013587592169642
1782891078159018500,7.1760185546875,-0.0011616708943620324,0.004169711377471685,-0.0010777813149616122
1782891078169040400,7.186040283203125,-0.0017321199411526322,0.0054845139384269714,0.0001984054979402572
1782891078179062500,7.1960625,-0.0016522251535207033,0.007155114784836769,0.0031529164407402277
1782891078189084400,7.20608447265625,-0.004080495331436396,0.007113835774362087,0.0005478122038766742
1782891078199106600,7.2161064453125,-0.00227833422832191,0.004825381562113762,0.0018761969404295087
1782891078209128700,7.226128662109375,-0.0026522420812398195,0.004745753016322851,0.004530835896730423
1782891078219151600,7.236151611328125,0.0013824469642713666,0.005601160228252411,0.0011398328933864832
1782891078229173500,7.246173583984375,-0.0015337144723162055,0.008448345586657524,0.0003818972909357399
1782891078239195600,7.256195556640625,-0.003430684097111225,0.005033907014876604,0.0014484933344647288
1782891078249217500,7.266217529296875,-0.001228516222909093,0.004752144683152437,0.0026114957872778177
1782891078259239400,7.276239501953125,-0.001463939668610692,0.007786550559103489,0.00016884441720321774
1782891078269261600,7.286261474609375,-0.0012841762509196997,0.006039516534656286,0.004424042999744415
1782891078279283500,7.296283447265625,-0.0019076223252341151,0.006384129635989666,0.002095375210046768
1782891078289305300,7.306305419921875,-0.004689560271799564,0.008319981396198273,0.0006295712664723396
1782891078299327500,7.316327392578125,-0.0007739146240055561,0.008798019029200077,0.00026551715563982725
1782891078309349600,7.326349609375,-0.0007046724203974009,0.005848035216331482,0.0038663772866129875
1782891078319371500,7.33637158203125,-0.0012112056137993932,0.007361776195466518,0.0019198728259652853
1782891078329393400,7.346393310546875,-0.0011342403013259172,0.008478173054754734,0.0005755090969614685
1782891078339415600,7.35641552734375,-0.002028796123340726,0.0048858351074159145,-0.00007616640505148098
1782891078349438500,7.3664384765625,-0.0011779161868616939,0.008390821516513824,0.0014258564915508032
1782891078359460600,7.376460693359375,-0.00012064119800925255,0.008261924609541893,0.0012745888670906425
1782891078369482500,7.386482421875,-0.001651159836910665,0.006560164503753185,0.000636495475191623
1782891078379504400,7.39650439453125,-0.0007627293234691024,0.005819805897772312,0.0027244137600064278
1782891078389526500,7.406526611328125,-0.00063383235828951,0.0049612028524279594,0.0014897723449394107
1782891078399548400,7.41654833984375,-0.0009358347742818296,0.006593454163521528,0.004481301177293062
1782891078409570600,7.426570556640625,0.00026738137239590287,0.007394266780465841,0.0009110674145631492
1782891078419592700,7.4365927734375,-0.0025070998817682266,0.005479720421135426,-0.000437291048001498
1782891078429614600,7.446614501953125,-0.0009302421822212636,0.006157228257507086,0.00036938043194822967
1782891078439636500,7.456636474609375,-0.0003981425834354013,0.006074403878301382,0.0012476909905672073
1782891078449658400,7.466658447265625,-0.002894856035709381,0.0049561429768800735,0.00013262542779557407
1782891078459680500,7.476680419921875,-0.0012295814231038094,0.007450459524989128,-0.0016109461430460215
1782891078469703400,7.486703369140625,-0.0008293083519674838,0.009008674882352352,-0.002388855442404747
1782891078479725600,7.4967255859375,-0.005064533557742834,0.00791544746607542,-0.0024058998096734285
1782891078489747500,7.50674755859375,-0.002046639332547784,0.005031776614487171,0.0048890309408307076
1782891078499769300,7.516769287109375,-0.002310824813321233,0.006327138282358646,0.004020574036985636
1782891078509791500,7.52679150390625,0.00108257494866848,0.007352455053478479,0.0024732777383178473
1782891078519813600,7.536813720703125,-0.002234125742688775,0.008701878599822521,0.00029294771957211196
1782891078529835500,7.54683544921875,-0.004893292207270861,0.006109025329351425,0.0008239820599555969
1782891078539857400,7.556857421875,-0.0018421085551381111,0.0070283482782542706,0.00033209618413820863
1782891078549879600,7.566879638671875,0.0005217132274992764,0.006847786251455545,0.00026019083452410996
1782891078559901400,7.5769013671875,0.0004628573951777071,0.005403287708759308,-0.0009427590412087739
1782891078569923300,7.58692333984375,-0.0006143912323750556,0.007059241179376841,0.002016545506194234
1782891078579945500,7.596945556640625,-0.002311357529833913,0.005486377980560064,0.0019917781464755535
1782891078589967600,7.606967529296875,-0.002290851203724742,0.006464823614805937,0.0037444045301526785
1782891078599990500,7.616990478515625,-0.0006293049664236605,0.008294414728879929,0.0021081583108752966
1782891078610012400,7.627012451171875,-0.003674895968288183,0.004797152243554592,0.001981658162549138
1782891078620034600,7.63703466796875,-0.001654355670325458,0.007231014780700207,0.0006671218434348702
1782891078630056400,7.647056396484375,-0.004595284350216389,0.006631270982325077,0.001979261403903365
1782891078640078600,7.65707861328125,-0.0018096179701387882,0.005412076134234667,0.0007938882918097079
1782891078650100500,7.6671005859375,-0.00009933590627042577,0.005560680292546749,0.002532133599743247
1782891078660122400,7.677122314453125,-0.002516687149181962,0.005400624126195908,0.0008482168195769191
1782891078670144500,7.68714453125,-0.0023904533591121435,0.00950855016708374,0.0016682040877640247
1782891078680166400,7.69716650390625,-0.0016415724530816078,0.007251254748553038,-0.00011451592581579462
1782891078690188300,7.707188232421875,-0.0021377194207161665,0.004806472919881344,0.00045673211570829153
1782891078700210700,7.717210693359375,-0.0023009711876511574,0.00743288267403841,0.0013116068439558148
1782891078710232600,7.727232666015625,-0.0014761901693418622,0.007161506451666355,0.001255680457688868
1782891078720255500,7.73725537109375,-0.0020125508308410645,0.007272560149431229,-0.00009214537567459047
1782891078730277600,7.747277587890625,-0.0004146541759837419,0.005230714567005634,0.0010610034223645926
1782891078740299500,7.757299560546875,-0.0009467537747696042,0.004471180960536003,0.0016277240356430411
1782891078750321400,7.7673212890625,-0.002632800955325365,0.006040049251168966,0.002326803747564554
1782891078760343600,7.777343505859375,-0.0002825613773893565,0.010062487795948982,-0.00018615495355334133
1782891078770365400,7.787365478515625,-0.0016578177455812693,0.005592105444520712,-0.0019411781104281545
1782891078780387300,7.79738720703125,0.001175519311800599,0.0070190271362662315,0.0012857741676270962
1782891078790409500,7.807409423828125,-0.0008261125767603517,0.003894340479746461,0.0008969526388682425
1782891078800431600,7.817431640625,-0.002674879040569067,0.0062429821118712425,0.0026069683954119682
1782891078810453500,7.82745361328125,-0.00044368262751959264,0.007837949320673943,0.0015387744642794132
1782891078820475600,7.8374755859375,0.001074052881449461,0.004547613672912121,0.001487109111621976
1782891078830497500,7.84749755859375,-0.0013675332302227616,0.006324208807200193,0.002627474721521139
1782891078840519400,7.85751953125,-0.003575826296582818,0.00606268597766757,-0.0008175904513336718
1782891078850542600,7.86754248046875,0.0011576761025935411,0.003961984533816576,0.0043808999471366405
1782891078860564500,7.877564453125,0.00002609897819638718,0.007780158892273903,-0.0003246393462177366
1782891078870586400,7.88758642578125,-0.0015579492319375277,0.007233145646750927,-0.0008000136003829539
1782891078880608500,7.8976083984375,-0.0013235911028459668,0.004818190820515156,0.0020359866321086884
1782891078890630400,7.90763037109375,0.0000010652644277797663,0.004510329570621252,0.0008040083339437842
1782891078900650500,7.917650390625,-0.003225354477763176,0.007157245185226202,0.0017382452497258782
1782891078910672400,7.92767236328125,-0.0015550197567790747,0.007965248078107834,-0.0003842941368930042
1782891078920694500,7.937694580078125,-0.001433845958672464,0.007508516311645508,-0.0007209177128970623
1782891078930716400,7.94771630859375,-0.0009278453071601689,0.004460794851183891,0.0033129723742604256
1782891078940738600,7.957738525390625,-0.0022535668686032295,0.006016613449901342,0.0043654534965753555
1782891078950760700,7.9677607421875,-0.0024517059791833162,0.0065460498444736,0.000636495475191623
1782891078960782600,7.977782470703125,-0.0011891013709828258,0.010406834073364735,0.001398159540258348
1782891078970804500,7.987804443359375,0.002495914464816451,0.007790811359882355,-0.00028069718973711133
1782891078980826600,7.99782666015625,-0.0017230651574209332,0.007143130525946617,0.002517486223950982
1782891078990848500,8.0078486328125,-0.0019017633749172091,0.005752161610871553,0.0011134676169604063
1782891079000870400,8.017870361328125,-0.001186970854178071,0.005002215504646301,0.001960352761670947
1782891079010893600,8.0278935546875,0.0004207794554531574,0.006620618514716625,0.004313788376748562
1782891079020915500,8.03791552734375,-0.001064998097717762,0.007398261222988367,0.0011779161868616939
1782891079030937300,8.047937255859376,-0.001032241270877421,0.00549356872215867,0.0007890945998951793
1782891079040959500,8.05795947265625,-0.003462641965597868,0.0059257997199893,0.0025190841406583786
1782891079050981600,8.067981689453125,-0.0005627259379252791,0.006055495701730251,0.001606152392923832
1782891079061003500,8.07800341796875,-0.0008247809601016343,0.006733004003763199,-0.0020591560751199722
1782891079071025700,8.088025634765625,-0.004033357370644808,0.007120493799448013,0.00020666129421442747
1782891079081047600,8.098047607421876,-0.000952080066781491,0.007250722497701645,0.003507116809487343
1782891079091069400,8.1080693359375,-0.0019259981345385313,0.004247741773724556,-0.0003105245705228299
1782891079101091300,8.11809130859375,-0.0025542378425598145,0.005888781975954771,0.00196434766985476
1782891079111113500,8.128113525390624,-0.0016756609547883272,0.007091199047863483,0.0009108011145144701
1782891079121135400,8.13813525390625,0.0001334243715973571,0.006569752003997564,-0.0005062668933533132
1782891079131158500,8.148158447265626,0.00020160128769930452,0.009881126694381237,0.0021797972731292248
1782891079141181200,8.15818115234375,-0.0024021712597459555,0.008017180487513542,0.0038282941095530987
1782891079151203000,8.168203125,-0.0010655306978151202,0.006821686867624521,0.0014471617760136724
1782891079161225200,8.17822509765625,-0.0023342606145888567,0.006677876226603985,0.001002413802780211
1782891079171247400,8.188247314453125,-0.0011579424608498812,0.0033963292371481657,0.0008644621120765805
1782891079181269200,8.198269287109374,-0.0005275722360238433,0.006336991675198078,0.0037553233560174704
1782891079191291400,8.20829150390625,-0.0012748552253469825,0.00869415607303381,0.0023161512799561024
1782891079201313300,8.218313232421876,-0.002951315138489008,0.0075729647651314735,0.0005347627447918057
1782891079211335200,8.228335205078125,0.00011717908637365326,0.005763613153249025,0.002344913315027952
1782891079221357300,8.238357421875,0.0010745854815468192,0.007927431724965572,0.0014863101532682776
1782891079231379200,8.248379150390624,0.0017947042360901833,0.004290618933737278,0.001484712352976203
1782891079241401000,8.258401123046875,0.00018642126815393567,0.005270395893603563,0.0034314829390496016
1782891079251423200,8.26842333984375,-0.00185089698061347,0.007195861078798771,0.0017086841398850083
1782891079261446100,8.278446044921875,-0.0009006810723803937,0.006774016655981541,0.0025398568250238895
1782891079271468300,8.28846826171875,-0.0009659285424277186,0.007226753979921341,0.0010138654615730047
1782891079281491200,8.2984912109375,-0.0029137644451111555,0.007297594100236893,0.0003235740587115288
1782891079291513000,8.30851318359375,-0.0008847020799294114,0.005525792948901653,0.0012231898726895452
1782891079301535500,8.318535400390624,-0.0007680556736886501,0.008534366264939308,0.0017097494564950466
1782891079311557400,8.328557373046875,0.00031079089967533946,0.006247776094824076,-0.00033209618413820863
1782891079321580300,8.338580322265624,0.0003832288784906268,0.005386243108659983,0.0030546458438038826
1782891079331602400,8.3486025390625,-0.0014112089993432164,0.007951666601002216,0.001190433045849204
1782891079341624300,8.358624267578126,-0.0007856325246393681,0.005299957003444433,0.0020160130225121975
1782891079351646200,8.368646240234375,-0.0006133259739726782,0.008219047449529171,0.0006253102328628302
1782891079361668400,8.37866845703125,-0.0017861821688711643,0.005902097560465336,0.0019054916920140386
1782891079371690200,8.388690185546874,-0.0014743260107934475,0.006748982705175877,0.0010106696281582117
1782891079381712100,8.398712158203125,-0.00019494339358061552,0.00643899105489254,0.0019917781464755535
1782891079391734300,8.408734375,-0.0025507756508886814,0.0065290057100355625,-0.0010189254535362124
1782891079401756200,8.418756103515625,-0.0041033984161913395,0.006195045076310635,-0.00024980452144518495
1782891079411778300,8.4287783203125,-0.0005970807396806777,0.007388407830148935,0.0007025419035926461
1782891079421800200,8.43880029296875,-0.001347293145954609,0.007741276640444994,0.003820570884272456
1782891079431822300,8.448822265625,-0.0007368966471403837,0.005576393101364374,0.00009827064059209079
1782891079441845200,8.45884521484375,-0.0012727247085422277,0.006899451371282339,-0.0002921487612184137
1782891079451867400,8.468867431640625,0.0010905644157901406,0.0034554514568299055,0.0029433255549520254
1782891079461889300,8.47888916015625,-0.0001882854849100113,0.008509598672389984,-0.0013968279818072915
1782891079471911200,8.4889111328125,-0.0006668555433861911,0.003961452282965183,0.0017172062071040273
1782891079481933300,8.498933349609375,-0.002424009144306183,0.006127400789409876,0.002323075430467725
1782891079491955200,8.508955078125,0.0006354302167892456,0.006362824235111475,0.0035031221341341734
1782891079501977000,8.51897705078125,-0.0014913701452314854,0.00478410255163908,0.002043976215645671
1782891079511999500,8.52899951171875,0.001169394003227353,0.005021390039473772,0.0035305526107549667
1782891079522021400,8.539021484375,-0.0017949705943465233,0.005909554194658995,0.0014285196084529161
1782891079532043300,8.549043212890625,-0.002630137838423252,0.0051537491381168365,0.00009108010999625549
1782891079542065200,8.559065185546874,-0.002879942301660776,0.00774607015773654,0.0008111988427117467
1782891079552087300,8.56908740234375,-0.0020540961995720863,0.006709568202495575,0.0018170748371630907
1782891079562110200,8.579110107421876,-0.0025992451701313257,0.003489806316792965,-0.001139033935032785
1782891079572132400,8.58913232421875,-0.0022485069930553436,0.004857339430600405,-0.0010074737947434187
1782891079582154200,8.599154296875,-0.0015592807903885841,0.0052080778405070305,0.0013259878614917397
1782891079592176000,8.609176025390624,-0.0006700513185933232,0.007836084812879562,0.0004487426485866308
1782891079602198300,8.6191982421875,-0.0006647250265814364,0.004877046681940556,0.0011590076610445976
1782891079612220200,8.62922021484375,-0.0013917679898440838,0.008625445887446404,-0.0014679343439638615
1782891079622242300,8.6392421875,-0.0006258428329601884,0.00893890019506216,-0.0002615224220789969
1782891079632264200,8.64926416015625,-0.0035441347863525152,0.006997455842792988,0.003973170183598995
1782891079642286300,8.659286376953125,-0.0015448997728526592,0.007568171247839928,0.0012314456980675459
1782891079652308200,8.66930810546875,-0.0015952334506437182,0.006706638727337122,0.00039015308720991015
1782891079662330000,8.679330078125,-0.0036517265252768993,0.00621075788512826,0.0013962953817099333
1782891079672352300,8.689352294921875,-0.003462375607341528,0.005594502668827772,0.002046106616035104
1782891079682374100,8.6993740234375,-0.0005118595436215401,0.005721535068005323,0.0015510249650105834
1782891079692397300,8.709397216796875,-0.0013992248568683863,0.007667773403227329,0.0027230822015553713
1782891079702419200,8.719419189453125,-0.0015717976493760943,0.007110107224434614,0.002305498579517007
1782891079712441000,8.729441162109374,-0.002079662401229143,0.006137787364423275,0.0035606464371085167
1782891079722463500,8.73946337890625,-0.002284193178638816,0.006897853687405586,0.001927862293086946
1782891079732485400,8.7494853515625,-0.0011235876008868217,0.0031369375064969063,-0.00029401297797448933
1782891079742507300,8.75950732421875,-0.00022264027211349458,0.0060054282657802105,-0.00042823629337362945
1782891079752529200,8.769529052734375,-0.0016873788554221392,0.0043830303475260735,0.0005960154230706394
1782891079762551300,8.77955126953125,-0.003573962254449725,0.0075604477897286415,0.0008282430935651064
1782891079772573200,8.7895732421875,-0.0010226538870483637,0.007757255341857672,0.0003326288133393973
1782891079782595000,8.799594970703126,0.001395496423356235,0.004329234827309847,0.0010045443195849657
1782891079792617200,8.8096171875,-0.0015664712991565466,0.005276254843920469,0.002383529208600521
1782891079802639400,8.819639404296876,-0.0015853798249736428,0.006192648317664862,0.0010538127971813083
1782891079812662300,8.829662353515625,-0.0020564929582178593,0.0054666707292199135,-0.0005137237603776157
1782891079822684400,8.839684326171875,-0.0014892396284267306,0.008678975515067577,0.00065460498444736
1782891079832706300,8.849706298828124,-0.000979244359768927,0.0065415226854383945,0.0012037487467750907
1782891079842728200,8.859728271484375,-0.0002540655550546944,0.007868043147027493,0.001912948559038341
1782891079852750300,8.869750244140626,-0.0009462211164645851,0.007562312297523022,0.0018674085149541497
1782891079862772200,8.879772216796875,-0.00033688987605273724,0.006098638754338026,0.0023161512799561024
1782891079872794000,8.889794189453125,-0.0012780509423464537,0.007664311211556196,0.0034200313966721296
1782891079882816300,8.899816162109374,-0.0007952199084684253,0.004995291121304035,0.0022072279825806618
1782891079892838100,8.909838134765625,-0.001988049829378724,0.007694937754422426,0.0001496696495451033
1782891079902860300,8.9198603515625,-0.002948119305074215,0.00697854720056057,-0.00016724651504773647
1782891079912882400,8.92988232421875,-0.0024807346053421497,0.004968925844877958,0.002264485927298665
1782891079922904300,8.939904296875,-0.0019430422689765692,0.0062946476973593235,0.0023875238839536905
1782891079932926200,8.94992626953125,-0.0005725796218030155,0.00606375141069293,-0.00040772996726445854
1782891079942949400,8.959949462890625,-0.0021853898651897907,0.00692128948867321,-0.0011411645682528615
1782891079952971300,8.96997119140625,-0.003263437654823065,0.008686965331435204,0.0011166634503751993
1782891079962993200,8.9799931640625,-0.0029286781791597605,0.00552392890676856,-0.001484179636463523
1782891079973015300,8.990015380859376,-0.002010952914133668,0.007148456759750843,0.003373692510649562
1782891079983037200,9.000037109375,0.0004423510399647057,0.006214220076799393,0.0014929680619388819
1782891079993059000,9.01005908203125,-0.00028762139845639467,0.007399326656013727,0.0015153386630117893
1782891080003081200,9.020081298828124,-0.0013470269041135907,0.006847253534942865,0.0026144252624362707
1782891080013103400,9.030103271484375,-0.003491936717182398,0.00777536490932107,0.0026261431630700827
1782891080023125200,9.040125244140626,-0.0034147051628679037,0.008563661016523838,-0.0002263686910737306
1782891080033147400,9.0501474609375,-0.002719087526202202,0.006616090890020132,0.0009456885163672268
1782891080043169300,9.060169189453125,-0.0015257250051945448,0.0062336609698832035,0.0003195793251506984
1782891080053191200,9.070191162109374,-0.0020804614759981632,0.006602508947253227,0.0011297129094600677
1782891080063214300,9.08021435546875,-0.00449807895347476,0.0051628039218485355,0.0007065366371534765
1782891080073236200,9.090236328125,0.0015286544803529978,0.00780679052695632,0.002338788006454706
1782891080083258000,9.100258056640625,-0.0008961536805145442,0.005594236310571432,0.002697515767067671
1782891080093280300,9.1102802734375,0.00009187905379803851,0.005071723833680153,0.00273133791051805
1782891080103302100,9.12030224609375,-0.001401355373673141,0.007312241476029158,-0.0008380967774428427
1782891080113324300,9.13032421875,-0.0005941512063145638,0.0060328589752316475,0.000036485307646216825
1782891080123346400,9.140346435546874,-0.0001155811914941296,0.006708769127726555,0.002189118415117264
1782891080133367800,9.150367919921875,-0.0016713999211788177,0.006418484263122082,0.0007792409160174429
1782891080143390000,9.160389892578126,-0.002070873975753784,0.00817803479731083,0.00007669904152862728
1782891080153411800,9.170411865234374,-0.0007302387384697795,0.007969776168465614,-0.0014516890514642
1782891080163433700,9.180433837890625,-0.0015462313313037157,0.005742840468883514,0.0031933963764458895
1782891080173456000,9.190455810546876,-0.002139050979167223,0.009487777948379517,-0.0010463559301570058
1782891080183478800,9.200478759765625,0.0004093278548680246,0.006625944748520851,0.002356897573918104
1782891080193500700,9.210500732421876,-0.002868490759283304,0.0062712118960917,0.0009358347742818296
1782891080203522800,9.220522705078125,-0.0012452941155061126,0.00512791657820344,0.0021587584633380175
1782891080213545000,9.230544921875,-0.002928145695477724,0.005842975340783596,0.001213602488860488
1782891080223566800,9.24056689453125,-0.002950782421976328,0.003921770956367254,0.003614175831899047
1782891080233589000,9.250589111328125,0.00045566685730591416,0.006660299375653267,0.0015997608425095677
1782891080243611000,9.26061083984375,0.0004977448261342943,0.007808654569089413,0.0021017666440457106
1782891080253632800,9.2706328125,0.0014761901693418622,0.005902363918721676,0.0019342538435012102
1782891080263655000,9.280655029296875,-0.0034413367975503206,0.008006793446838856,0.0012833772925660014
1782891080273676800,9.2906767578125,-0.0008751147543080151,0.007742342073470354,0.0008492820779792964
1782891080283698700,9.30069873046875,-0.002014148747548461,0.008828911930322647,-0.000060986389144090936
1782891080293721000,9.31072119140625,-0.0022860574536025524,0.006659500766545534,0.0014471617760136724
1782891080303743000,9.320742919921875,-0.0011233213590458035,0.0046243127435445786,0.0020181434229016304
1782891080313766000,9.330765869140626,-0.004061853047460318,0.007691741921007633,0.0018663433147594333
1782891080323788000,9.3407880859375,-0.002499909373000264,0.007613711059093475,0.000030892668291926384
1782891080333810000,9.350809814453125,-0.0011448930017650127,0.002775812754407525,0.001918807509355247
1782891080343831800,9.360831787109374,-0.001246625673957169,0.004790494218468666,0.0014378406340256333
1782891080353854000,9.37085400390625,-0.004083957523107529,0.007757788058370352,0.0016698020044714212
1782891080363875800,9.380875732421876,-0.0019347865600138903,0.0037742317654192448,0.0010543455136939883
1782891080373897700,9.390897705078125,-0.0006378270918503404,0.006037652492523193,0.0023875238839536905
1782891080383919900,9.400919921875,-0.0005281048361212015,0.006473612040281296,0.001669003046117723
1782891080393941800,9.410941650390624,-0.001862082164734602,0.005240568425506353,0.0028943235520273447
1782891080403964000,9.4209638671875,0.00012676646292675287,0.003703924361616373,0.002295911079272628
1782891080413986000,9.430986083984376,-0.0011105381418019533,0.006383863277733326,-0.001118793967179954
1782891080424008000,9.441008056640625,-0.0012061456218361855,0.008975918404757977,-0.00015153386630117893
1782891080434030800,9.45103076171875,-0.002472212305292487,0.0062879896722733974,0.00013848437811248004
1782891080444053000,9.461052978515625,-0.0004902879591099918,0.005201153457164764,0.002810966456308961
1782891080454075000,9.471074951171875,-0.0019313243683427572,0.006855509243905544,-0.00044821001938544214
1782891080464096800,9.4810966796875,0.0014674017438665032,0.0030117689166218042,0.003585413796827197
1782891080474119000,9.491118896484375,-0.0035183019936084747,0.005317001137882471,0.00041199102997779846
1782891080484140800,9.501140869140626,-0.0037286917213350534,0.007219030521810055,0.0028695559594780207
1782891080494162700,9.51116259765625,-0.000651675509288907,0.006246710661798716,0.0010727213229984045
1782891080504185000,9.52118505859375,-0.0010956244077533484,0.004013383761048317,-0.0014913701452314854
1782891080514207000,9.53120703125,0.0000780306218075566,0.005544967483729124,0.003750795964151621
1782891080524228900,9.541228759765625,-0.0033832797780632973,0.005826996639370918,0.0026439863722771406
1782891080534251000,9.5512509765625,-0.002921487670391798,0.006458698306232691,0.001315335277467966
1782891080544273000,9.56127294921875,-0.0011832424206659198,0.006612096447497606,0.0013246563030406833
1782891080554295800,9.5712958984375,0.00130920996889472,0.006052033510059118,-0.0002854908525478095
1782891080564318000,9.58131787109375,0.002558765234425664,0.003349723992869258,0.0023872575256973505
1782891080574339800,9.59133984375,-0.002295911079272628,0.007017163094133139,0.0025590313598513603
1782891080584361700,9.60136181640625,-0.0005808354471810162,0.006632336415350437,-0.0013560815714299679
1782891080594384000,9.6113837890625,-0.002862099092453718,0.007870705798268318,-0.0003299656673334539
1782891080604405800,9.62140576171875,-0.002201635157689452,0.007464840542525053,0.0014658038271591067
1782891080614428000,9.631427978515624,0.0012295814231038094,0.0065322015434503555,0.003924167715013027
1782891080624450000,9.641449951171875,-0.0014860439114272594,0.005583317019045353,0.002701510675251484
1782891080634472000,9.651471923828124,-0.00009614011651137844,0.005332447588443756,0.002516687149181962
1782891080644493800,9.661493896484375,-0.00045087316539138556,0.008087487891316414,0.0031646343413740396
1782891080654516000,9.671515869140626,-0.0020961740519851446,0.006706904619932175,0.0007400924805551767
1782891080664537900,9.681537841796874,-0.001543834456242621,0.007734618615359068,0.0022455775178968906
1782891080674559700,9.691559814453125,-0.0009052084642462432,0.005569468718022108,-0.0001781654718797654
1782891080684583000,9.7015830078125,-0.0012783173006027937,0.005084240809082985,0.0034378746058791876
1782891080694604800,9.711604736328125,-0.003481284249573946,0.004792091902345419,0.0017275925492867827
1782891080704626700,9.721626708984376,-0.00027377295191399753,0.00993305817246437,0.0003707120195031166
1782891080714649000,9.731649169921875,0.0004348942020442337,0.005005677696317434,0.0011827098205685616
1782891080724671000,9.7416708984375,-0.0012865731259807944,0.004553472623229027,0.004233893472701311
1782891080734692900,9.75169287109375,-0.001088966615498066,0.006909571588039398,-0.00011078749957960099
1782891080744715000,9.761715087890625,-0.003291400847956538,0.007655789144337177,0.0010926949325948954
1782891080754737000,9.77173681640625,-0.003180080559104681,0.006141515914350748,-0.0002801645314320922
1782891080764758800,9.7817587890625,0.0011896340874955058,0.007807855494320393,0.0000029294772048160667
1782891080774781000,9.791781005859375,-0.0011523497523739934,0.005856291390955448,0.0023307986557483673
1782891080784802800,9.801802734375,-0.00115421402733773,0.0062712118960917,0.0006596649764105678
1782891080794825000,9.811824951171875,-0.0002998719282913953,0.004116448108106852,-0.00035686357296071947
1782891080804847900,9.821847900390624,-0.0002516687090974301,0.006015814375132322,0.0007046724203974009
1782891080814869800,9.831869873046875,-0.0012330436147749424,0.00592659879475832,-0.0009230516152456403
1782891080824892000,9.841891845703126,-0.0018929748330265284,0.006607835181057453,0.00033582461765035987
1782891080834914000,9.8519140625,0.0003856257244478911,0.005234443116933107,0.0037864823825657368
1782891080844936000,9.86193603515625,-0.0032109732273966074,0.00680197961628437,0.0005187837523408234
1782891080854957800,9.871957763671874,-0.0020775320008397102,0.005303685087710619,0.0017145430902019143
1782891080864980000,9.88197998046875,-0.0037292244378477335,0.006560430862009525,0.00008442220860160887
1782891080875001900,9.892001953125,0.000835966260638088,0.006421680096536875,0.0022538332268595695
1782891080885023700,9.902023681640625,-0.001208009896799922,0.005827262531965971,0.0036304211243987083
1782891080895045600,9.912045654296875,-0.0023901870008558035,0.005594768561422825,0.0012860405258834362
1782891080905068000,9.922068115234374,-0.0017947042360901833,0.006450176239013672,0.002403502818197012
1782891080915090000,9.93208984375,-0.0013289173366501927,0.004472246393561363,0.003079679561778903
1782891080925111800,9.94211181640625,-0.0015454323729500175,0.0073625752702355385,-0.0009592706337571144
1782891080935135000,9.952135009765625,-0.0009017463307827711,0.006051234435290098,0.004187554586678743
1782891080945156900,9.962156982421876,0.0004977448261342943,0.007017962168902159,0.00140987744089216
1782891080955179000,9.972178955078125,-0.002017078222706914,0.008776979520916939,0.002660231664776802
1782891080965201000,9.982200927734375,-0.001085504423826933,0.005667473189532757,0.000672181835398078
1782891080975222800,9.992222900390624,-0.0012434299569576979,0.007796936668455601,0.0009203884401358664
1782891080985245000,10.002244873046875,-0.0006029396899975836,0.004814994987100363,-0.0014969628537073731
1782891080995266800,10.012266845703126,-0.003403519745916128,0.008168181404471397,-0.0006601976347155869
1782891081005289000,10.0222890625,-0.0004844290087930858,0.0057553574442863464,0.0032898029312491417
1782891081015310800,10.032310791015625,-0.0002897519152611494,0.005891178734600544,0.001332645770162344
1782891081025333000,10.0423330078125,-0.003626692807301879,0.008444084785878658,0.0024490428622812033
1782891081035355000,10.05235498046875,-0.0001704423048067838,0.003635214874520898,0.000639691308606416
1782891081045376800,10.062376708984376,-0.0022482406347990036,0.007473895326256752,0.0035340148024260998
1782891081055400000,10.07239990234375,-0.002710299100726843,0.005840844940394163,0.0007819040911272168
1782891081065421800,10.082421875,-0.00015686018741689622,0.006810235325247049,0.0016192019684240222
1782891081075444000,10.09244384765625,0.0009768474847078323,0.007126885466277599,0.000672181835398078
1782891081085465900,10.1024658203125,-0.0019861855544149876,0.01098367478698492,0.0019837887957692146
1782891081095487700,10.11248779296875,-0.001424791174940765,0.005569735076278448,0.002252768026664853
1782891081105509600,10.122509521484375,-0.001511610229499638,0.005938050337135792,0.0006708502769470215
1782891081115532000,10.132531982421876,0.0002993392990902066,0.005073854699730873,0.0016844493802636862
1782891081125554000,10.142553955078125,-0.003826962551102042,0.0062616243958473206,0.0014442323008552194
1782891081135575300,10.1525751953125,-0.0035233621019870043,0.00678227236494422,-0.00006444849714171141
1782891081145597200,10.16259716796875,-0.0017174725653603673,0.005362274590879679,-0.000401604687795043
1782891081155619300,10.172619384765625,-0.002049302449449897,0.008056594990193844,0.00301709515042603
1782891081165641200,10.18264111328125,-0.0010753844399005175,0.006499444600194693,0.004332696553319693
1782891081175664000,10.1926640625,-0.0009576727170497179,0.008607602678239346,0.00202267081476748
1782891081185686300,10.202686279296875,-0.0025622271932661533,0.007172425277531147,0.0011326423846185207
1782891081195708200,10.212708251953124,-0.0007707187905907631,0.006330067757517099,0.0018186726374551654
1782891081205730300,10.222730224609375,0.0004191815387457609,0.005742041394114494,0.000005592638444795739
1782891081215752400,10.23275244140625,-0.0023347933311015368,0.007457117084413767,0.0021960425656288862
1782891081225774300,10.2427744140625,-0.0029800771735608578,0.0059905145317316055,0.002119077369570732
1782891081235796200,10.252796142578125,-0.0021544971968978643,0.006557501386851072,-0.00013688647595699877
1782891081245818400,10.262818359375,-0.0015017564874142408,0.007062969263643026,-0.00007669904152862728
1782891081255840300,10.27284033203125,-0.0008884305134415627,0.007292267866432667,0.0010189254535362124
1782891081265862100,10.282862060546876,-0.0034325483720749617,0.006875216495245695,0.001499625970609486
1782891081275884300,10.29288427734375,-0.0024229439441114664,0.005094626918435097,-0.00032890037982724607
1782891081285906400,10.302906494140625,-0.0034914042335003614,0.006491455249488354,0.0016588830621913075
1782891081295928300,10.31292822265625,-0.0022746059112250805,0.0051958272233605385,0.0012362393317744136
1782891081305951200,10.322951171875,-0.000480434246128425,0.005958023946732283,0.0027470507193356752
1782891081315973400,10.332973388671874,-0.0018519621808081865,0.006523679476231337,-0.0024117587599903345
1782891081325995300,10.342995361328125,-0.00041731735109351575,0.0060296631418168545,0.0031965922098606825
1782891081336017400,10.353017333984376,0.0005222458858042955,0.006462959107011557,-0.0007331682136282325
1782891081346039300,10.363039306640625,-0.000838895735796541,0.006336192600429058,0.002531068166717887
1782891081356061200,10.373061279296875,-0.0009930927772074938,0.00484402384608984,0.003430684097111225
1782891081366083300,10.383083251953124,-0.0026141589041799307,0.007250189781188965,0.0025337315164506435
1782891081376105200,10.393105224609375,-0.001130245509557426,0.006025401875376701,0.001958222361281514
1782891081386127400,10.40312744140625,-0.00119602563790977,0.007910387590527534,0.003632285399362445
1782891081396149500,10.4131494140625,-0.004789428785443306,0.0054389736615121365,0.00009747169679030776
1782891081406171400,10.42317138671875,-0.002034921431913972,0.007040865253657103,0.000006125270374468528
1782891081416193300,10.433193359375,-0.0033894050866365433,0.008281365968286991,0.000031425301131093875
1782891081426216400,10.443216552734375,-0.002016279147937894,0.005662679206579924,0.002326803747564554
1782891081436238300,10.45323828125,-0.003064765827730298,0.007869641296565533,0.0036823528353124857
1782891081446260200,10.46326025390625,-0.0021470405627042055,0.008370582014322281,-0.0012333098566159606
1782891081456282400,10.473282470703126,-0.00130947632715106,0.008835037238895893,-0.00023302659974433482
1782891081466304300,10.48330419921875,-0.0018136126454919577,0.007948736660182476,0.0012626046082004905
1782891081476326100,10.493326171875,-0.0020546286832541227,0.005697034299373627,-0.0007091998122632504
1782891081486348300,10.503348388671874,-0.0015622102655470371,0.007384412921965122,0.0013859090395271778
1782891081496370400,10.513370361328125,-0.0007779093575663865,0.007910387590527534,0.0037936728913336992
1782891081506392300,10.523392333984376,-0.001985120354220271,0.005046690348535776,0.0018221348291262984
1782891081516414500,10.53341455078125,-0.0014572817599400878,0.008439557626843452,-0.0014535533264279366
1782891081526436400,10.543436279296875,-0.00005246427463134751,0.005412076134234667,0.0009270463488064706
1782891081536458200,10.553458251953124,-0.001323857344686985,0.0075609805062413216,0.002161954063922167
1782891081546481400,10.5634814453125,-0.002368615474551916,0.006369748618453741,0.00296276668086648
1782891081556503300,10.57350341796875,-0.0007182545377872884,0.003932956140488386,-0.00015446334145963192
1782891081566525200,10.583525146484375,-0.0010399643797427416,0.00612367270514369,0.004442418925464153
1782891081576547300,10.59354736328125,0.0020154803059995174,0.008687764406204224,0.0007669904152862728
1782891081586569200,10.6035693359375,-0.002291117561981082,0.006791859865188599,-0.00037923414492979646
1782891081596591400,10.61359130859375,-0.0012311793398112059,0.00782809592783451,0.0047849016264081
1782891081606613500,10.623613525390626,-0.0013480921043083072,0.006974286399781704,0.0008476841612718999
1782891081616635400,10.633635498046875,-0.003834685543552041,0.006564425770193338,-0.0002759034978225827
1782891081626657300,10.6436572265625,-0.0032085764687508345,0.0070584421046078205,0.0007475492893718183
1782891081636679400,10.653679443359374,-0.0006183860241435468,0.005517803598195314,-0.0013440974289551377
1782891081646701300,10.663701416015625,-0.002502572489902377,0.005428054835647345,0.0014570154016837478
1782891081656723200,10.67372314453125,-0.0022157500497996807,0.0070283482782542706,-0.00016245282313320786
1782891081666745000,10.6837451171875,-0.003379817819222808,0.006747385021299124,0.000523577444255352
1782891081676768300,10.693768310546876,-0.003546797903254628,0.007768973242491484,0.002238120650872588
1782891081686790100,10.7037900390625,-0.002341717481613159,0.005951632279902697,0.0003603257064241916
1782891081696812300,10.713812255859375,-0.001799764228053391,0.003824033075943589,0.0026666230987757444
1782891081706834400,10.72383447265625,-0.0008130630594678223,0.008073905482888222,0.0002412823960185051
1782891081716856300,10.733856201171875,0.00048363005043938756,0.007925567217171192,0.003631752682849765
1782891081726878500,10.74387841796875,-0.0007219829712994397,0.06382744759321213,0.039630234241485596
1782891081736900400,10.753900390625,-0.0036304211243987083,0.05903216078877449,0.029606893658638
1782891081746922200,10.763922119140625,-0.002862099092453718,0.06420162320137024,0.03185140714049339
1782891081756944100,10.773944091796874,-0.0024471788201481104,0.04145503044128418,0.02238679863512516
1782891081766966300,10.78396630859375,-0.0010575412306934595,0.014023141004145145,0.009290969930589199
1782891081776988200,10.79398828125,0.0003885551996063441,-0.018434135243296623,-0.0029313412960618734
1782891081787010300,10.80401025390625,0.0006447513005696237,-0.035172633826732635,-0.012866264209151268
1782891081797033200,10.814033203125,-0.0031180288642644882,-0.03731647878885269,-0.02056732587516308
1782891081807055400,10.824055419921875,-0.0006825681775808334,-0.03626692667603493,-0.02575596421957016
1782891081817077500,10.834077392578125,-0.0007305050967261195,-0.031868450343608856,-0.026687802746891975
1782891081827099400,10.844099365234374,-0.0007227819296531379,-0.02195589803159237,-0.01889858953654766
1782891081837121300,10.854121337890625,-0.003590473672375083,0.013497699052095413,0.007419566623866558
1782891081847143200,10.86414306640625,-0.0013899037148803473,0.02064535766839981,0.001805889536626637
