time,seconds_elapsed,z,y,x
1782891071019539500,0.03653955078125,-0.0001145658316090703,0.014568895101547241,0.0058968854136765
1782891071029561600,0.0465615234375,-0.0002080427948385477,0.002113023307174444,-0.001811634167097509
1782891071039583500,0.05658349609375,0.0014948435127735138,-0.00634203152731061,-0.0021340728271752596
1782891071049605400,0.06660546875,0.001980071421712637,-0.010319728404283524,0.0005008588777855039
1782891071059628500,0.076628662109375,-0.002346447901800275,-0.0012219492346048355,0.0010125075932592154
1782891071069650400,0.086650390625,0.0008080663392320275,0.007461287081241608,0.0013933395966887474
1782891071079672300,0.09667236328125,0.0015429023187607527,0.004947658162564039,0.001725014648400247
1782891071089694500,0.106694580078125,-0.00013329123612493277,-0.005269026383757591,-0.0000097684096544981
1782891071099716400,0.11671630859375,0.00045302556827664375,-0.007118857931345701,0.0003902383614331484
1782891071109738200,0.12673828125,-0.0007286189356818795,-0.0009597656317055225,0.00013564014807343483
1782891071119760600,0.1367607421875,0.00034941075136885047,0.005450334399938583,0.0007525829132646322
1782891071129782500,0.146782470703125,0.001302556018345058,0.0075212083756923676,0.0011230288073420525
1782891071139804700,0.1568046875,-0.0009421160211786628,0.0026987637393176556,-0.0039824326522648335
1782891071149826600,0.16682666015625,-0.00044543633703142405,-0.004149554297327995,-0.001570407534018159
1782891071159848400,0.176848388671875,-0.0005837163189426064,0.0003323308192193508,-0.0018032379448413849
1782891071169870600,0.18687060546875,0.00033640582114458084,0.004479671828448772,-0.0002042760606855154
1782891071179892500,0.196892578125,-0.0029432610608637333,0.0064307465218007565,0.0021569933742284775
1782891071189915400,0.206915283203125,0.0004828954697586596,0.002338533755391836,0.00041155738290399313
1782891071199937500,0.2169375,0.0006120556499809027,-0.004259370733052492,0.00041200651321560144
1782891071209959400,0.22695947265625,-0.0023544395808130503,-0.0008417363278567791,-0.001094543724320829
1782891071219981300,0.236981201171875,-0.0016681562410667539,0.00134994275867939,-0.001417978317476809
1782891071230003700,0.247003662109375,-0.0005570854991674423,0.0049151168204844,0.0007290621288120747
1782891071240025600,0.257025634765625,0.0004049508133903146,0.0025031170807778835,-0.0020960750989615917
1782891071250047500,0.267047607421875,0.0008771292632445693,-0.0006282278336584568,0.0010347372153773904
1782891071260069600,0.277069580078125,0.0003075425047427416,-0.00475586112588644,-0.004859371110796928
1782891071270091500,0.287091552734375,-0.000622433377429843,-0.0017619356513023376,0.00021847826428711414
1782891071280113400,0.297113525390625,-0.0007959338836371899,0.002644849009811878,-0.0005784099921584129
1782891071290135300,0.30713525390625,-0.0003461260348558426,0.001626722514629364,0.00028099212795495987
1782891071300157400,0.317157470703125,0.00046297156950458884,-0.0025425429921597242,-0.0007152527687139809
1782891071310179600,0.3271796875,-0.0024601139593869448,0.00004391884431242943,-0.000025760382413864136
1782891071320202500,0.337202392578125,-0.0007007110398262739,-0.002053146716207266,-0.00032674206886440516
1782891071330224600,0.347224609375,0.0010114352917298675,0.0012915171682834625,-0.00008199759759008884
1782891071340246500,0.35724658203125,-0.001145476009696722,0.0024897060357034206,0.003094385378062725
1782891071350268700,0.3672685546875,0.0007123452378436923,0.00023747095838189125,0.0008799668867141008
1782891071360290600,0.37729052734375,0.00026035308837890625,-0.003307925770059228,-0.00016789045184850693
1782891071370312400,0.3873125,-0.00008479261305183172,-0.0025601102970540524,-0.0018243766389787197
1782891071380334600,0.39733447265625,-0.0008358861086890101,0.0008818521164357662,0.0015408374601975083
1782891071390356500,0.4073564453125,0.002241130219772458,0.0015849270857870579,0.0002433453919366002
1782891071400378400,0.41737841796875,0.0006711939931847155,0.001565722282975912,0.00033940619323402643
1782891071410400500,0.427400390625,0.0010911745484918356,-0.00007611652836203575,-0.002698195166885853
1782891071420422700,0.437422607421875,-0.0009652856970205903,-0.0011545540764927864,0.003247068263590336
1782891071430444500,0.447444580078125,0.001513318158686161,0.0006060614250600338,-0.0014821732183918357
1782891071440466400,0.457466552734375,0.00036874826764687896,0.002817867323756218,-0.0006073947297409177
1782891071450489600,0.467489501953125,0.00028405978810042143,0.00018320232629776,-0.0013027461245656013
1782891071460511500,0.477511474609375,-0.0021963855251669884,-0.001843967940658331,0.0005893699126318097
1782891071470533600,0.48753369140625,-0.0006445616018027067,-0.0011874986812472343,-0.0015028093475848436
1782891071480555500,0.497555419921875,0.00012255890760570765,0.0007297857664525509,-0.0004512070445343852
1782891071490577400,0.507577392578125,0.0003830161294899881,0.0015516369603574276,0.003251385875046253
1782891071500599300,0.517599365234375,0.00039015570655465126,0.0012885876931250095,-0.000478723319247365
1782891071510621400,0.527621337890625,-0.0007888257969170809,0.0013285353779792786,-0.0001998903462663293
1782891071520643600,0.5376435546875,-0.0011112506035715342,-0.0019415700808167458,-0.0009423704468645155
1782891071530665500,0.54766552734375,0.001768958056345582,0.0008731246925890446,0.000496801920235157
1782891071540687600,0.5576875,0.0014486447907984257,-0.0009403419680893421,-0.00029650970827788115
1782891071550709500,0.56770947265625,-0.00003260537050664425,0.003470118623226881,-0.00031035812571644783
1782891071560731400,0.5777314453125,0.0004306088085286319,0.0011447672732174397,-0.0010133470641449094
1782891071570754600,0.587754638671875,-0.0005036280490458012,0.0017509032040834427,0.0031664841808378696
1782891071580776400,0.5977763671875,0.0006727162399329245,-0.002427433617413044,0.0003195974277332425
1782891071590798600,0.607798583984375,-0.0011158627457916737,0.0008386671543121338,0.0002306478563696146
1782891071600820500,0.617820556640625,-0.0007601154502481222,0.0016713165678083897,-0.00016308599151670933
1782891071610842400,0.62784228515625,0.0015594977885484695,-0.0003982256166636944,0.0005221453029662371
1782891071620864500,0.637864501953125,-0.0014622672460973263,-0.001329584512859583,-0.0010205227881669998
1782891071630886700,0.64788671875,-0.0002329519484192133,-0.0004243762232363224,0.0009443574817851186
1782891071640908500,0.657908447265625,0.0012273355387151241,-0.001249801367521286,-0.0006819160771556199
1782891071650930400,0.667930419921875,-0.00016256829258054495,0.0007140138186514378,-0.00035487988498061895
1782891071660952600,0.67795263671875,0.0018124175257980824,-0.0014042053371667862,0.0006317178485915065
1782891071670974500,0.687974365234375,-0.00020652497187256813,0.0009676059707999229,-0.0015957501018419862
1782891071680996400,0.697996337890625,-0.0017107450403273106,0.000980091281235218,-0.00013439240865409374
1782891071691018500,0.7080185546875,-0.00011364731471985579,-0.0004100790247321129,0.001224352396093309
1782891071701041400,0.71804150390625,-0.00031811429653316736,-0.0000984719954431057,0.0005890133325010538
1782891071711063300,0.728063232421875,0.0011309116380289197,-0.0002571963705122471,-0.0008964980370365083
1782891071721085400,0.73808544921875,-0.00013178191147744656,-0.001804525963962078,0.0021918711718171835
1782891071731107600,0.748107666015625,-0.0006971710827201605,-0.0013845455832779408,-0.0005096395034343004
1782891071741129500,0.75812939453125,-0.00014618085697293282,-0.0019448832608759403,0.0008218069560825825
1782891071751151600,0.768151611328125,-0.0001224786974489689,-0.0006681638769805431,0.0010228755418211222
1782891071761173500,0.778173583984375,-0.0006317916559055448,0.0015394976362586021,0.001736786449328065
1782891071771195400,0.7881953125,0.0007003214559517801,0.00035865185782313347,0.0028158994391560555
1782891071781217500,0.798217529296875,0.0019093933515250683,0.0008216015994548798,-0.0004158352967351675
1782891071791239400,0.808239501953125,-0.0011801397195085883,-0.00043008383363485336,-0.0026848483830690384
1782891071801261300,0.81826123046875,0.00028646248392760754,0.0001967092975974083,0.002062904415652156
1782891071811283700,0.82828369140625,-0.0004011656856164336,-0.00013831676915287971,0.0008399807848036289
1782891071821306400,0.838306396484375,-0.0011315636802464724,-0.00048203393816947937,-0.0010272928047925234
1782891071831328500,0.84832861328125,0.0012844559969380498,-0.00021625030785799026,0.0017815432511270046
1782891071841350700,0.8583505859375,-0.0011432250030338764,0.000017609912902116776,0.0007950230501592159
1782891071851372500,0.86837255859375,0.0032003906089812517,-0.0006423210725188255,-0.0008508103783242404
1782891071861394400,0.87839453125,0.0005370431463234127,0.00020972592756152153,-0.0006104285130277276
1782891071871416600,0.88841650390625,-0.0012808305909857154,0.00005100155249238014,-0.00024344492703676224
1782891071881438500,0.8984384765625,0.0012453385861590505,-0.001911161933094263,-0.0007467820541933179
1782891071891460400,0.90846044921875,0.0014786315150558949,0.000536017119884491,-0.0014181649312376976
1782891071901482500,0.918482421875,-0.0014238706789910793,-0.0012930035591125488,-0.0005305956001393497
1782891071911504400,0.92850439453125,0.00047735997941344976,-0.0005920594558119774,0.000792995560914278
1782891071921526500,0.938526611328125,0.0005133406375534832,0.002795110922306776,-0.00001708941999822855
1782891071931548700,0.948548583984375,-0.0019388979999348521,-0.0010608802549540997,-0.0012059244327247143
1782891071941570600,0.958570556640625,-0.0010972183663398027,0.000050063710659742355,-0.0022205542773008347
1782891071951593500,0.968593505859375,0.0009363715071231127,-0.0007257149554789066,0.0002700339537113905
1782891071961615600,0.97861572265625,-0.00008720764890313148,-0.0007792855612933636,-0.0005883540725335479
1782891071971637500,0.988637451171875,0.00025261170230805874,0.0008140839636325836,-0.0018104787450283766
1782891071981659400,0.998659423828125,-0.0006089531816542149,-0.0016854191198945045,0.0015006279572844505
1782891071991681500,1.008681640625,0.00032182165887206793,-0.0007687592878937721,0.0005581353325396776
1782891072001703400,1.018703369140625,-0.00028031261172145605,-0.00012921495363116264,0.00035158684477210045
1782891072011725300,1.028725341796875,-0.004422859754413366,0.001306495163589716,-0.00272010313346982
1782891072021747700,1.038747802734375,-0.00026567617896944284,0.00015558535233139992,0.0009721876122057438
1782891072031769600,1.04876953125,-0.0009580980986356735,0.0002826182171702385,0.0008789771236479282
1782891072041791500,1.05879150390625,-0.00011109444312751293,-0.001053237821906805,-0.00017723836936056614
1782891072051813600,1.068813720703125,0.0006724075064994395,0.00007620872929692268,0.0019484966760501266
1782891072061835500,1.07883544921875,-0.00007689907215535641,-0.0010336334817111492,0.0012839603004977107
1782891072071858400,1.0888583984375,0.0013255216181278229,0.0014875810593366623,-0.0005427018040791154
1782891072081880600,1.098880615234375,0.0004934270400553942,-0.0012809280306100845,0.0007021204801276326
1782891072091902500,1.10890234375,0.0014263323973864317,-0.00021592993289232254,-0.00006353820208460093
1782891072101924400,1.11892431640625,0.0005294717266224325,-0.0013733445666730404,0.001930682105012238
1782891072111946500,1.128946533203125,0.0025580015499144793,-0.0025680384133011103,0.002453460358083248
1782891072121968000,1.138968017578125,-0.0004189771134406328,-0.0011051986366510391,-0.0015843607252463698
1782891072131990000,1.148989990234375,-0.0011420254595577717,-0.0020727249793708324,0.000604757689870894
1782891072142012200,1.15901220703125,0.0019090967252850533,-0.0015043821185827255,0.0019140341319143772
1782891072152034000,1.169033935546875,-0.00038335227873176336,-0.0001469687558710575,-0.0003991874400526285
1782891072162056000,1.179055908203125,0.003704475937411189,0.0013477434404194355,-0.002588630421087146
1782891072172077800,1.189077880859375,-0.0027702010702341795,-0.0005268556997179985,-0.0001699476270005107
1782891072182100000,1.199099853515625,-0.0022888174280524254,0.00009975163266062737,-0.0002881686668843031
1782891072192121900,1.209121826171875,0.001424694317393005,-0.0011314274743199348,-0.00027085805777460337
1782891072202145000,1.21914501953125,-0.00027287821285426617,-0.0022018766030669212,0.00022708706092089415
1782891072212167000,1.2291669921875,0.0018536559073254466,0.0009744754061102867,-0.001477868645451963
1782891072222189000,1.23918896484375,-0.002101331949234009,-0.0006838175468146801,-0.00008533848449587822
1782891072232211200,1.249211181640625,-0.0022430121898651123,0.0014981101267039776,-0.002441170858219266
1782891072242233000,1.259233154296875,0.0016709980554878712,0.0019338387064635754,0.0017010195879265666
1782891072252255000,1.2692548828125,0.0005205125198699534,0.000992943998426199,0.0011891600443050265
1782891072262276900,1.27927685546875,0.0000510095851495862,-0.0005420828238129616,0.0003215506440028548
1782891072272299000,1.289299072265625,0.0007972272578626871,-0.0021937754936516285,0.0013817551080137491
1782891072282321000,1.29932080078125,0.00022171251475811005,0.000847941730171442,0.00017007719725370407
1782891072292342800,1.3093427734375,0.0014907086733728647,0.0002865474671125412,-0.0018651105929166079
1782891072302365200,1.319365234375,-0.0017541953129693866,-0.0004588528536260128,-0.0016026335069909692
1782891072312387000,1.329386962890625,-0.00032301247119903564,0.00008629634976387024,-0.0011488308664411306
1782891072322409000,1.339408935546875,0.0015229582786560059,0.0015200776979327202,0.0014741782797500491
1782891072332432100,1.34943212890625,-0.000883207656443119,0.002428482286632061,-0.0016845971113070846
1782891072342454000,1.3594541015625,0.0017284094356000423,-0.0006235623732209206,0.0008728354005143046
1782891072352476000,1.369475830078125,0.0009662127122282982,0.0006821858696639538,-0.001678739208728075
1782891072362498000,1.379498046875,0.0005389944999478757,0.000005228910595178604,-0.0012388513423502445
1782891072372520000,1.38952001953125,-0.0010956537444144487,-0.0002576252445578575,0.001553739421069622
1782891072382541800,1.399541748046875,0.0008306466042995453,0.0012518432922661304,0.002468679565936327
1782891072392564000,1.40956396484375,-0.0021265274845063686,-0.00022168364375829697,0.00010911922436207533
1782891072402585900,1.4195859375,-0.0012416498502716422,-0.0011732238344848156,0.0024811234325170517
1782891072412608000,1.42960791015625,-0.0001090075820684433,0.00011068582534790039,0.0017847069539129734
1782891072422630100,1.439630126953125,0.0012029358185827732,-0.0014927429147064686,0.0010171387111768126
1782891072432652000,1.449652099609375,0.00044526648707687855,0.00020875036716461182,0.0017748080426827073
1782891072442674000,1.459673828125,0.0026639923453330994,0.0019722450524568558,0.0009992923587560654
1782891072452697000,1.469697021484375,-0.0011139679700136185,-0.00016547460108995438,0.002274147467687726
1782891072462719000,1.479718994140625,0.0017778800101950765,-0.00171616580337286,0.00024688930716365576
1782891072472740900,1.489740966796875,0.0007075555622577667,-0.0015377341769635677,0.0008772595319896936
1782891072482763000,1.499762939453125,0.0008967900648713112,0.0013193250633776188,0.0019102487713098526
1782891072492785000,1.509784912109375,-0.0005208106013014913,-0.0001661865971982479,0.002654868643730879
1782891072502806800,1.519806884765625,0.00008010503370314837,-0.00031562894582748413,-0.000638069526758045
1782891072512829200,1.5298291015625,0.0003296431968919933,-0.000122816301882267,0.000997643917798996
1782891072522851000,1.53985107421875,-0.0023156157694756985,0.0008604731410741806,-0.0003823060542345047
1782891072532873000,1.549873046875,-0.0023845916148275137,0.00031798752024769783,0.0007910828571766615
1782891072542895000,1.55989501953125,-0.0016793118556961417,-0.0008667409420013428,0.0007600082317367196
1782891072552917000,1.5699169921875,0.00022271776106208563,0.0008616503328084946,0.0014654794940724969
1782891072562939000,1.57993896484375,-0.00033285527024418116,0.0003245552070438862,-0.0002789166755974293
1782891072572961000,1.5899609375,0.0012040550354868174,-0.0010621529072523117,0.0008119140984490514
1782891072582984000,1.59998388671875,0.0002612121170386672,0.0006813281215727329,-0.00010124023538082838
1782891072593005800,1.610005859375,-0.0007076457841321826,-0.0017538662068545818,-0.00014305184595286846
1782891072603028000,1.620028076171875,0.00115682661999017,-0.002355458214879036,0.0003747635055333376
1782891072613049900,1.6300498046875,0.0004699974087998271,0.0013101166114211082,0.0021476298570632935
1782891072623072000,1.640072021484375,0.00027673528529703617,-0.0009465031325817108,-0.0007439657347276807
1782891072633094100,1.65009423828125,0.0016277569811791182,-0.0001560770906507969,-0.0006126718944869936
1782891072643116000,1.660115966796875,-0.00041932903695851564,0.0011441162787377834,-0.001666012336499989
1782891072653138000,1.670137939453125,-0.00014981720596551895,-0.00027721282094717026,0.0010173888877034187
1782891072663160000,1.68016015625,0.0014581362484022975,-0.0015139756724238396,0.0017748404061421752
1782891072673182000,1.690181884765625,0.0005811573355458677,-0.000004762317985296249,0.0006424643797799945
1782891072683203800,1.700203857421875,-0.0009534331038594246,-0.0003033229149878025,0.0013624797575175762
1782891072693226000,1.71022607421875,0.00020743883214890957,-0.0011318321339786053,-0.0007557984790764749
1782891072703248100,1.720248046875,-0.0023498968221247196,0.0026067104190587997,-0.0009852317161858082
1782891072713270800,1.730270751953125,-0.0006358862156048417,-0.0010524727404117584,0.00007364107295870781
1782891072723293200,1.740293212890625,-0.0030158041045069695,0.0012927800416946411,-8.299248293042183e-7
1782891072733315000,1.750315185546875,-0.002082099672406912,-0.00004519196227192879,0.001484681386500597
1782891072743337000,1.7603369140625,-0.0013558194041252136,0.001323111355304718,-0.0003196288598701358
1782891072753359000,1.770359130859375,-0.00009561155457049608,-0.00042392220348119736,-0.0005563838640227914
1782891072763381000,1.780381103515625,0.0009956068824976683,-0.0001791468821465969,-0.00036729522980749607
1782891072773403000,1.79040283203125,-0.0012337251100689173,0.000015530269593000412,0.0005973017541691661
1782891072783425000,1.800425048828125,0.0009148553945124149,0.0004469510167837143,0.0010191337205469608
1782891072793447000,1.810447021484375,-0.001117136562243104,-0.00030512548983097076,0.000017252517864108086
1782891072803469000,1.820468994140625,-0.00019882421474903822,-0.0010140752419829369,-0.001713218749500811
1782891072813491200,1.8304912109375,0.0008571192156523466,0.0012043379247188568,0.0006348903989419341
1782891072823513000,1.84051318359375,-0.0035473480820655823,0.0015353625640273094,0.0014807155821472406
1782891072833535000,1.850534912109375,-0.0012602254282683134,0.002580121159553528,-0.0010940285865217447
1782891072843558100,1.86055810546875,-0.0016544556710869074,-0.002628645393997431,0.0004942592931911349
1782891072853580000,1.870580078125,-0.0006424544844776392,-0.00095404963940382,-0.0029638553969562054
1782891072863602000,1.880601806640625,0.0005973718361929059,0.000271613709628582,-0.00026898831129074097
1782891072873624000,1.8906240234375,0.001442126464098692,-0.0009387927129864693,-0.0009251912124454975
1782891072883646000,1.90064599609375,0.001683024107478559,0.0024051484651863575,0.0020778700709342957
1782891072893667800,1.910667724609375,-0.001744464272633195,-0.0010814615525305271,0.0007425610674545169
1782891072903690000,1.92068994140625,0.0016973487799987197,-0.0007789758965373039,0.0007020345656201243
1782891072913712000,1.930712158203125,0.00004032999277114868,0.0020511657930910587,-0.00038959505036473274
1782891072923734000,1.940734130859375,-0.0009302215185016394,-0.00026872195303440094,-0.0015529978554695845
1782891072933756200,1.950756103515625,-0.004387004300951958,0.0010143890976905823,-0.0017990738851949573
1782891072943778000,1.960778076171875,-0.0011625605402514338,0.0016381675377488136,0.0002452793996781111
1782891072953800000,1.970800048828125,0.0007573122275061905,-0.0002550734207034111,0.0010551468003541231
1782891072963821800,1.98082177734375,0.001076115295290947,-0.0020463005639612675,0.002757788635790348
1782891072973845000,1.990844970703125,-0.0011430967133492231,0.0013076844625175,-0.0005479933461174369
1782891072983867000,2.000866943359375,0.0007739613065496087,-0.0014297324232757092,0.0010634656064212322
1782891072993889000,2.010888916015625,0.00036197027657181025,-0.0021314751356840134,-0.001162404427304864
1782891073003911000,2.020910888671875,0.0026123053394258022,-0.000796884298324585,-0.0007748592179268599
1782891073013933000,2.03093310546875,-0.0008527333848178387,0.0002747718244791031,-0.0002773806918412447
1782891073023955200,2.040955078125,-0.002101880731061101,0.000638261903077364,0.0008109646150842309
1782891073033977000,2.05097705078125,-0.00025844061747193336,0.00008965050801634789,-0.00013685435988008976
1782891073043999000,2.0609990234375,-0.0033554290421307087,-0.00027448171749711037,-0.0018949862569570541
1782891073054020900,2.071020751953125,-0.00032528454903513193,0.00012605777010321617,0.0008677770383656025
1782891073064043000,2.08104296875,-0.0012904874747619033,0.0004318617284297943,-0.002747272839769721
1782891073074065000,2.09106494140625,-0.0005501286359503865,-0.001107978168874979,0.0005784826353192329
1782891073084086800,2.101086669921875,0.0024192652199417353,-0.0013184859417378902,0.0005032572662457824
1782891073094109200,2.111109130859375,-0.0006537564331665635,0.0008477289229631424,-0.0019274097867310047
1782891073104131800,2.1211318359375,0.001799886580556631,0.001290410291403532,-0.002949147019535303
1782891073114154000,2.131154052734375,-0.0011032252805307508,0.001049127895385027,-0.0029203849844634533
1782891073124176600,2.1411767578125,-0.00016832607798278332,0.0003291303291916847,0.0002541282447054982
1782891073134198800,2.15119873046875,-0.00008523534052073956,0.00023272400721907616,0.000001926906406879425
1782891073144220700,2.161220703125,0.0005373473395593464,-0.0006532305851578712,0.0010436383308842778
1782891073154242600,2.17124267578125,-0.000040026032365858555,-0.0010726787149906158,-0.0007068574777804315
1782891073164264700,2.1812646484375,-0.001364168245345354,0.0020379177294671535,0.0009316598298028111
1782891073174286600,2.19128662109375,-0.0011119670234620571,0.0018853186629712582,-0.0016902221832424402
1782891073184308500,2.20130859375,-0.001562884310260415,-0.0001931595616042614,0.00009543146006762981
1782891073194330600,2.21133056640625,-0.0009375740773975849,0.001346680335700512,0.0004357835277915001
1782891073204352500,2.2213525390625,0.0005524077569134533,-0.0012281760573387146,0.0009141262853518128
1782891073214374700,2.231374755859375,0.0002589274663478136,-0.0012513455003499985,-0.00033489614725112915
1782891073224396800,2.241396728515625,0.0015942926984280348,0.0013912394642829895,-0.0017334194853901863
1782891073234419700,2.251419677734375,-0.002120550721883774,0.0008242526091635227,-0.0016585846897214651
1782891073244441600,2.261441650390625,-0.00027285912074148655,-0.00026616547256708145,0.0005431345198303461
1782891073254463700,2.271463623046875,-0.00033997080754488707,-0.0010249000042676926,0.0015636577736586332
1782891073264485600,2.281485595703125,-0.0013996069319546223,0.0017403997480869293,-0.0000767875462770462
1782891073274507500,2.291507568359375,-0.0012621877249330282,0.0013409261591732502,-0.0005601512966677547
1782891073284529700,2.30152978515625,-0.0006700450321659446,0.0014136978425085545,-0.00040999334305524826
1782891073294551600,2.311551513671875,0.0016234692884609103,0.0007441793568432331,0.001965013798326254
1782891073304573400,2.321573486328125,-0.003027087077498436,-0.0004623355343937874,-0.0022063327487558126
1782891073314595600,2.331595703125,0.0006771035259589553,0.0011310335248708725,0.0011998502304777503
1782891073324617700,2.34161767578125,0.0017115473747253418,0.00044027436524629593,-0.001491020666435361
1782891073334639600,2.3516396484375,0.0004582637338899076,-0.0027006580494344234,-0.0005075153312645853
1782891073344661800,2.361661865234375,-0.0009997471934184432,0.001429977361112833,-0.0014774962328374386
1782891073354684700,2.3716845703125,-0.001141427201218903,0.0006648511625826359,-0.00014618202112615108
1782891073364706600,2.38170654296875,0.00024092255625873804,-0.00116288335993886,0.0019567040726542473
1782891073374728700,2.391728759765625,0.0010816825088113546,0.0025024251081049442,-0.0023757265880703926
1782891073384750600,2.40175048828125,0.00017328746616840363,-0.0011911592446267605,-0.00013857462909072638
1782891073394772500,2.4117724609375,-0.0018147622467949986,0.0009343097917735577,-0.0024864175356924534
1782891073404794600,2.421794677734375,-0.0027901995927095413,0.0006308467127382755,-0.0024566850624978542
1782891073414816500,2.43181640625,-0.0013747295597568154,0.0013794610276818275,-0.0006452029338106513
1782891073424838700,2.441838623046875,0.0010765809565782547,-0.00047404877841472626,0.0009127259254455566
1782891073434860800,2.45186083984375,0.0007460826891474426,0.00025405921041965485,-0.0005187230999581516
1782891073444882700,2.461882568359375,0.0013481125934049487,0.0016506537795066833,-0.002332638716325164
1782891073454904600,2.471904541015625,0.00223361374810338,-0.0004505803808569908,-0.002978721633553505
1782891073464926700,2.4819267578125,-0.001089423312805593,-0.0003690691664814949,0.000119629199616611
1782891073474948600,2.491948486328125,-0.0009181821951642632,-0.0010194131173193455,0.00190794188529253
1782891073484970500,2.501970458984375,0.000024344539269804955,0.0022226376459002495,0.0004017243627458811
1782891073494993700,2.51199365234375,-0.0005104182055220008,-0.002223243471235037,0.0011556651443243027
1782891073505015600,2.522015625,-0.000503610004670918,-0.0006120256148278713,-0.0014403152745217085
1782891073515037400,2.532037353515625,-0.0004178562667220831,0.001394133549183607,0.000013504410162568092
1782891073525059600,2.5420595703125,0.00008588447235524654,0.0024921302683651447,0.0003392881480976939
1782891073535081700,2.552081787109375,-0.0021248054690659046,-0.0013915575109422207,0.00036645238287746906
1782891073545103600,2.562103515625,0.00010843912605196238,0.0011653746478259563,-0.00014341913629323244
1782891073555125800,2.572125732421875,-0.0038357023149728775,0.0014900141395628452,0.0016134681645780802
1782891073565147600,2.582147705078125,0.0008155056857503951,-0.0012806993909180164,-0.0023171361535787582
1782891073575169500,2.59216943359375,-0.0008140824502333999,0.0006642071530222893,-0.0013173854677006602
1782891073585191700,2.602191650390625,-0.004398673307150602,-0.0012015411630272865,0.0005006012506783009
1782891073595213600,2.612213623046875,0.0007406946970149875,0.0016078278422355652,0.0018715965561568737
1782891073605235500,2.6222353515625,0.000019535771571099758,0.0009287586435675621,-0.00047454098239541054
1782891073615258600,2.632258544921875,-0.001613248372450471,0.0006291531026363373,0.0010908651165664196
1782891073625280500,2.642280517578125,-0.0011526644229888916,-0.0002839528024196625,-0.0018027909100055695
1782891073635302700,2.652302734375,-0.0006533218547701836,0.000031099189072847366,0.0033416375517845154
1782891073645324800,2.66232470703125,-0.0010937040206044912,-0.0002540014684200287,-0.0014853799948468804
1782891073655346700,2.6723466796875,0.0006823579897172749,-0.003456452628597617,-0.0006773768691346049
1782891073665368600,2.68236865234375,-0.0012028872733935714,0.0011058771051466465,-0.0006277250358834863
1782891073675390700,2.692390625,-0.0005623969482257962,0.0002619214355945587,0.001261787605471909
1782891073685412600,2.70241259765625,-0.000789256882853806,-0.0007564225234091282,0.0008180054137483239
1782891073695434500,2.7124345703125,-0.0009884611936286092,0.00032029347494244576,-0.002668871311470866
1782891073705456600,2.72245654296875,0.00036265829112380743,-0.00023339875042438507,0.0012951691169291735
1782891073715478800,2.732478759765625,0.00280504347756505,-0.0003210166469216347,0.0014981019776314497
1782891073725500700,2.742500732421875,-0.00195710570551455,0.0017301784828305244,0.000921683618798852
1782891073735522600,2.7525224609375,0.0007089847349561751,-0.000024578068405389786,-0.002491157501935959
1782891073745544700,2.762544677734375,0.0019179731607437134,0.00024030311033129692,-0.002294261706992984
1782891073755567600,2.772567626953125,-0.0007630310719832778,0.0023114439100027084,0.0010639844695106149
1782891073765589800,2.78258984375,0.001754815923050046,0.0008275299333035946,0.0010319666471332312
1782891073775611600,2.792611572265625,0.0001140424283221364,0.002307714894413948,-0.0015499680303037167
1782891073785633500,2.802633544921875,0.001943959854543209,0.0012396126985549927,0.00039979908615350723
1782891073795655700,2.81265576171875,0.00141132774297148,-0.001769492868334055,-0.0008343097870238125
1782891073805677600,2.822677490234375,-0.0000866432674229145,0.00026572588831186295,-0.0004396786680445075
1782891073815699500,2.832699462890625,-0.0011694844579324126,0.0009554848074913025,-0.00117311323992908
1782891073825721900,2.842721923828125,0.00003137183375656605,0.0007553012110292912,0.0008095991797745228
1782891073835743700,2.85274365234375,-0.000013901852071285248,0.002661591861397028,-0.0010769839864224195
1782891073845765600,2.862765625,-0.0003878781571984291,-0.0003395797684788704,0.0007614140631631017
1782891073855787500,2.87278759765625,-0.0011221116874366999,0.00012381002306938171,-0.0004063820233568549
1782891073865809700,2.8828095703125,0.0011063887504860759,0.002508114092051983,-0.0026169829070568085
1782891073875831600,2.89283154296875,-0.000886987429112196,0.0007195346988737583,-0.0005559624987654388
1782891073885854700,2.902854736328125,0.0014158760895952582,0.0005989586934447289,0.0014728985261172056
1782891073895876600,2.912876708984375,0.0007213236531242728,0.000027976930141448975,0.002642825013026595
1782891073905898500,2.9228984375,-0.0016270317137241364,0.00009819772094488144,0.000441382871940732
1782891073915920600,2.932920654296875,-0.001037407899275422,0.00045080017298460007,-0.0007144290721043944
1782891073925942800,2.94294287109375,0.0004382497863844037,-0.0005734511651098728,0.0006800021510571241
1782891073935964700,2.952964599609375,-0.0011629939544945955,0.0009164442308247089,-0.0003556326264515519
1782891073945986600,2.962986572265625,-0.000799085246399045,0.0006101750768721104,-0.0007144292467273772
1782891073956008700,2.9730087890625,0.0007402219343930483,-0.001209829468280077,0.0012296783970668912
1782891073966030600,2.983030517578125,-0.001904624979943037,0.0001260899007320404,0.00038754427805542946
1782891073976052500,2.993052490234375,-0.0027477818075567484,0.001248345710337162,-0.001422606292180717
1782891073986074600,3.00307470703125,0.0017484929412603378,0.0009921402670443058,0.0011986336903646588
1782891073996096500,3.013096435546875,0.0021184058859944344,-0.0015799403190612793,-0.0004285578615963459
1782891074006118700,3.02311865234375,0.0016058061737567186,0.00023344671353697777,0.00024296611081808805
1782891074016141600,3.0331416015625,0.002871606731787324,-0.0008427365683019161,0.001795056276023388
1782891074026163500,3.04316357421875,-0.0009281809907406569,0.00029782019555568695,0.004619603976607323
1782891074036185900,3.053185791015625,0.0015403031138703227,0.0027154376730322838,-0.0015557340811938047
1782891074046207700,3.063207763671875,0.00037506106309592724,0.0011378806084394455,-0.001474067335948348
1782891074056229600,3.073229736328125,-0.0033855887595564127,0.0035363235510885715,-0.0016237370437011123
1782891074066251500,3.08325146484375,0.0009572779526934028,-0.001304812729358673,0.0010993581963703036
1782891074076273700,3.093273681640625,0.0008648662478663027,-0.0008259760215878487,0.0006263806717470288
1782891074086295600,3.103295654296875,0.0009401527931913733,0.0017347871325910091,-0.00006152759306132793
1782891074096317400,3.1133173828125,-0.0017642872408032417,0.00012064538896083832,-0.0006634020246565342
1782891074106339600,3.123339599609375,0.0018567253137007356,0.0009585060179233551,-0.0001732626697048545
1782891074116361700,3.13336181640625,-0.00011987285688519478,-0.0025597962085157633,0.0018526039784774184
1782891074126383900,3.1433837890625,0.0002976781688630581,-0.0017253020778298378,0.00048519193660467863
1782891074136406000,3.153406005859375,0.0009922306053340435,-0.0018462096340954304,-0.003351357998326421
1782891074146429000,3.163428955078125,-0.0010894096922129393,0.00240456685423851,-0.0022217126097530127
1782891074156451000,3.173451171875,-0.0008569157216697931,0.0003486066125333309,-0.0004704179591499269
1782891074166473000,3.183472900390625,-0.0004196088993921876,0.0004966300912201405,0.0016748385969549417
1782891074176494800,3.193494873046875,0.0017506011063233018,-0.0007705017924308777,0.002332905540242791
1782891074186516700,3.203516845703125,0.001759036211296916,0.0007454315200448036,-0.0007513738819397986
1782891074196539000,3.213538818359375,0.00044236937537789345,-0.001207464374601841,0.0015615816228091717
1782891074206560800,3.223560791015625,-0.0011470188619568944,0.0015334021300077438,0.001089522149413824
1782891074216582700,3.233582763671875,-0.0007858941098675132,-0.003041908610612154,-0.0011525930603966117
1782891074226605000,3.24360498046875,0.002940977457910776,0.0005576452240347862,-0.0006750799366272986
1782891074236627000,3.253626953125,-0.0005938364192843437,0.00013153953477740288,0.0006471795495599508
1782891074246648800,3.26364892578125,-0.002138672396540642,0.0004812167026102543,0.00116030836943537
1782891074256671000,3.2736708984375,-0.0007205391302704811,-0.0018706205300986767,-0.0017417381750419736
1782891074266694000,3.28369384765625,-0.00048675097059458494,-0.0009346427395939827,0.0008023753762245178
1782891074276716000,3.293716064453125,-0.0006052615353837609,0.00006004795432090759,0.0012561779003590345
1782891074286738000,3.303738037109375,0.00039212952833622694,0.002178845927119255,0.0021803900599479675
1782891074296759800,3.313759765625,0.0010302229784429073,0.0006805513985455036,-0.0014226004714146256
1782891074306781700,3.32378173828125,0.0004791892133653164,-0.0014072698540985584,0.0022309673950076103
1782891074316803800,3.333803955078125,-0.001547742635011673,0.001399435568600893,-0.002632497576996684
1782891074326826000,3.343825927734375,-0.00010067224502563477,0.0013545132242143154,-0.00018706044647842646
1782891074336848000,3.353847900390625,0.001410139026120305,-0.00067881029099226,0.0020883444231003523
1782891074346870000,3.3638701171875,-0.000257133855484426,0.0013608564622700214,0.00019072170834988356
1782891074356892000,3.373891845703125,0.001801755977794528,-0.0013161529786884785,-0.0005331254797056317
1782891074366913800,3.383913818359375,0.000532949052285403,0.001312284730374813,-0.0010601913090795279
1782891074376936000,3.39393603515625,-0.0016343313036486506,0.0018270742148160934,-0.0008772320579737425
1782891074386957800,3.403957763671875,0.00010813772678375244,-0.0007800878956913948,0.0004418380558490753
1782891074396979700,3.413979736328125,0.0008492954657413065,0.0019294116646051407,0.00004342920146882534
1782891074407003000,3.4240029296875,-0.0013853772543370724,0.0027313153259456158,0.0017292196862399578
1782891074417024800,3.434024658203125,-0.00025326746981590986,0.0008806847035884857,-0.0014340829802677035
1782891074427046700,3.444046630859375,0.000628138252068311,0.0014210478402674198,-0.0021835609804838896
1782891074437069000,3.454069091796875,0.0016420036554336548,0.0015185195952653885,-0.0007640960975550115
1782891074447091000,3.464091064453125,0.0000508773373439908,-0.0004140879027545452,0.0000890195369720459
1782891074457112800,3.47411279296875,0.002202178817242384,-0.0032940302044153214,-0.000010316376574337482
1782891074467135000,3.484135009765625,-0.0010674534132704139,0.0006517707370221615,0.00023866514675319195
1782891074477156900,3.494156982421875,-0.00048581906594336033,-0.0010132379829883575,0.0026256563141942024
1782891074487178800,3.5041787109375,0.0018669789424166083,0.002095484174787998,-0.0019698254764080048
1782891074497201000,3.514200927734375,-0.0012611700221896172,0.0006206249818205833,-0.0022846111096441746
1782891074507222800,3.524222900390625,-0.0011729582911357284,-0.001817949116230011,0.001686486299149692
1782891074517245000,3.534244873046875,0.0009541084291413426,-0.0002376297488808632,0.0030801184475421906
1782891074527267000,3.54426708984375,-0.0006538332672789693,0.0010387133806943893,0.0027998341247439384
1782891074537290000,3.5542900390625,0.0006370009505189955,-0.0011637210845947266,0.001118580694310367
1782891074547311900,3.564311767578125,0.00026303401682525873,-0.000005005858838558197,0.0016468068351969123
1782891074557334000,3.574333984375,-0.00037079828325659037,-0.0012902473099529743,-0.001334335538558662
1782891074567356000,3.58435595703125,-0.0005918774986639619,-0.0011474485509097576,-0.000260285334661603
1782891074577377800,3.594377685546875,0.0012632805155590177,0.00005789846181869507,0.0006712883478030562
1782891074587400000,3.60439990234375,0.0006180097698234022,-0.0005018352530896664,-0.0006145637016743422
1782891074597421800,3.614421875,0.001438796054571867,-0.0012331390753388405,0.0013457891764119267
1782891074607443700,3.624443603515625,-0.0009934271220117807,0.0003761621192097664,0.0014769824920222163
1782891074617465900,3.6344658203125,-0.000655472045764327,0.0011290377005934715,0.0012127970112487674
1782891074627488000,3.644488037109375,0.0011926472652703524,-0.00040799705311656,0.0024420032277703285
1782891074637510000,3.654510009765625,-0.00017009221483021975,0.00014327745884656906,0.0010038961190730333
1782891074647532000,3.664531982421875,0.0015554241836071014,-0.0012651658616960049,-0.0014648109208792448
1782891074657554000,3.674553955078125,-0.0005585930775851011,0.0009111692197620869,-0.0009497555438429117
1782891074667576800,3.684576904296875,0.0020398637279868126,-0.0013057738542556763,0.0006302489200606942
1782891074677599000,3.694598876953125,0.0007492959848605096,0.0005946578457951546,-0.0014989484334364533
1782891074687620900,3.704620849609375,0.0012838058173656464,-0.0015134941786527634,0.0011247704969719052
1782891074697642800,3.714642822265625,0.001913643442094326,-0.0012849951162934303,0.0004773561377078295
1782891074707665000,3.724664794921875,0.0018379229586571455,0.00036607449874281883,-0.0008467345032840967
1782891074717686800,3.734686767578125,-0.0009645215468481183,0.00004676124081015587,0.0002731246640905738
1782891074727709000,3.744708984375,-0.0007168838055804372,-0.00025828881189227104,-0.0010206837905570865
1782891074737731000,3.75473095703125,-0.000418609706684947,0.002418986987322569,-0.0013844716595485806
1782891074747753000,3.7647529296875,0.00036976172123104334,-0.001755803357809782,-0.00047184620052576065
1782891074757774800,3.77477490234375,0.001121838460676372,0.00021147355437278748,0.0004160517128184438
1782891074767797000,3.784796875,0.0012723268009722233,0.002480169292539358,-0.0007725011673755944
1782891074777819000,3.79481884765625,0.0020630192011594772,-0.0004708794876933098,0.0003617391921579838
1782891074787840800,3.8048408203125,-0.0005279149627313018,0.0004646899178624153,-0.00020544335711747408
1782891074797864000,3.814864013671875,0.002012208104133606,-0.001092993188649416,0.0033432189375162125
1782891074807885800,3.8248857421875,0.0011327965185046196,-0.00017484696581959724,-0.0004866250674240291
1782891074817907700,3.83490771484375,0.002392738126218319,0.0008949451148509979,-0.0013516198378056288
1782891074827929900,3.844929931640625,0.001825194340199232,0.002922782674431801,-0.00013438321184366941
1782891074837952000,3.854951904296875,0.00039481057319790125,0.0002537625841796398,0.000550848082639277
1782891074847974000,3.864973876953125,0.000919220969080925,-0.000023558270186185837,-0.0004118754295632243
1782891074857996000,3.87499609375,-0.0009947929065674543,0.0017815320752561092,-0.0017740823095664382
1782891074868018000,3.885017822265625,-0.000631902483291924,0.0003101392649114132,-0.0015806921292096376
1782891074878039800,3.895039794921875,-0.0011136684333905578,0.0024305484257638454,0.0008073643548414111
1782891074888061700,3.905061767578125,0.0013115821639075875,0.0005144667811691761,-0.00003949226811528206
1782891074898083000,3.9150830078125,-0.0009608932305127382,0.0006486903876066208,-0.0016661511035636067
1782891074908105000,3.92510498046875,-0.0013441763585433364,-0.001939250621944666,-0.0003681191592477262
1782891074918126800,3.935126953125,-0.0008283221395686269,0.00034121423959732056,-0.00010952621232718229
1782891074928149000,3.94514892578125,-0.00019035977311432362,0.0007952782325446606,-0.00025909184478223324
1782891074938171000,3.9551708984375,-0.001932067098096013,0.0006730393506586552,0.0012759541859850287
1782891074948192800,3.96519287109375,0.0025707005988806486,0.0009842407889664173,0.0006363429129123688
1782891074958214700,3.975214599609375,-0.0011715734144672751,0.0007951562292873859,-0.0011210772208869457
1782891074968236800,3.98523681640625,0.0007935798494145274,0.0010423646308481693,0.00004663318395614624
1782891074978259000,3.995259033203125,0.00042526470497250557,0.0006610001437366009,0.00015875231474637985
1782891074988281900,4.00528173828125,0.0008414562908001244,0.00035587791353464127,-0.0016011091647669673
1782891074998304000,4.015303955078125,0.0018273585010319948,-0.00005025416612625122,-0.0007028249674476683
1782891075008326000,4.025325927734375,0.00022090028505772352,0.0005307681858539581,0.0016186988214030862
1782891075018348000,4.03534814453125,0.0005394143518060446,-0.0009789778850972652,0.00016940664499998093
1782891075028370000,4.045369873046875,-0.0011992366053164005,0.0011052200570702553,0.0016377806896343827
1782891075038391800,4.055391845703125,0.0008138468838296831,-0.00014886213466525078,-0.0010464192600920796
1782891075048414000,4.0654140625,-0.00045489915646612644,0.00035868072882294655,-0.0004889052361249924
1782891075058435800,4.075435791015625,0.0006460516597144306,-0.0004115053452551365,0.001877313363365829
1782891075068457700,4.085457763671875,-0.00027412991039454937,0.0005866470746695995,-0.00010198354721069336
1782891075078480000,4.09547998046875,-0.0010304675670340657,0.0010998379439115524,0.00009775359649211168
1782891075088502000,4.105501953125,0.0018179286271333694,0.0016030645929276943,0.00048196478746831417
1782891075098524000,4.11552392578125,0.0017865033587440848,0.0005689589306712151,0.0024577639997005463
1782891075108545800,4.1255458984375,-0.0038684438914060593,0.00010708160698413849,-0.0004647504538297653
1782891075118569000,4.13556884765625,0.0017423037206754088,0.0011638235300779343,0.0007728205528110266
1782891075128590300,4.14559033203125,-0.0002266645897179842,0.00014832010492682457,0.001311476225964725
1782891075138612500,4.155612548828125,0.001309446757659316,0.0023361071944236755,-0.0012456910917535424
1782891075148634400,4.16563427734375,0.0011787725379690528,0.002399250864982605,0.000006364891305565834
1782891075158656300,4.17565625,0.00012416078243404627,-0.00017922138795256615,-0.0016999223735183477
1782891075168678400,4.185678466796875,-0.00028691766783595085,0.00027706893160939217,0.0013345025945454836
1782891075178700500,4.195700439453125,-0.0009417888941243291,0.0017106481827795506,0.0002993318485096097
1782891075188722400,4.205722412109375,-0.0009435744723305106,-0.0006827902980148792,0.0027667833492159843
1782891075198744600,4.21574462890625,0.0023435652256011963,0.00012361491098999977,0.00096941611263901
1782891075208766500,4.225766357421875,0.0019036028534173965,-0.0008613318204879761,0.001390837482176721
1782891075218788400,4.235788330078125,-0.001371020101942122,-0.00010153185576200485,-0.001733316807076335
1782891075228810200,4.245810302734375,-0.0021474077366292477,0.00008955784142017365,0.005346704740077257
1782891075238832400,4.255832275390625,0.0010113675380125642,-0.001011392567306757,0.0010118773207068443
1782891075248855300,4.265855224609375,0.0013926432002335787,-0.001809996087104082,-0.0002106653992086649
1782891075258877400,4.27587744140625,0.00008849322330206633,-0.0012443405576050282,0.0008018683874979615
1782891075268899300,4.2858994140625,-0.0006964019266888499,0.0008034347556531429,0.00011288991663604975
1782891075278922200,4.295922119140625,0.0005254564457572997,-0.0014131139032542706,-0.00031481380574405193
1782891075288944400,4.3059443359375,0.0005776812904514372,0.0025345059111714363,0.0008048490853980184
1782891075298966500,4.315966552734375,-0.0005514989607036114,-0.001648521050810814,0.001711389166302979
1782891075308989400,4.325989501953125,0.0005626663914881647,-0.00116831436753273,0.0014265261124819517
1782891075319011300,4.33601123046875,-0.0011319030309095979,0.000101480633020401,-0.000004124129191040993
1782891075329033500,4.346033447265625,-0.000977704068645835,-0.0011165137402713299,-0.0008353051380254328
1782891075339055400,4.356055419921875,0.00023909425362944603,0.0002741888165473938,-0.00133571308106184
1782891075349077500,4.366077392578125,-0.0013060040073469281,0.0009781639091670513,-0.00009371980559080839
1782891075359099400,4.376099365234375,0.0015784658025950193,-0.00017125625163316727,-0.0001081008231267333
1782891075369121300,4.386121337890625,-0.00009167345706373453,0.000633645337074995,-0.00006233458407223225
1782891075379143400,4.396143310546875,0.00039195659337565303,0.0005681314505636692,0.0007459347834810615
1782891075389165300,4.406165283203125,0.001093102153390646,0.0003574742004275322,0.001667416887357831
1782891075399187200,4.416187255859375,0.001613483764231205,-0.0020356420427560806,-0.0019129368010908365
1782891075409209600,4.426209716796875,0.0017399437492713332,0.0026382305659353733,0.0019859089516103268
1782891075419231500,4.4362314453125,0.0008563069277442992,-0.00042014336213469505,-0.0006069446681067348
1782891075429253400,4.44625341796875,0.00109031330794096,-0.00005413684993982315,-0.00013396423310041428
1782891075439276500,4.456276611328125,0.00013956474140286446,-0.0008767871186137199,-0.0007166638970375061
1782891075449298400,4.46629833984375,-0.0008660581661388278,0.0010616052895784378,-0.001411561737768352
1782891075459320300,4.4763203125,0.001921738963574171,-0.00019221100956201553,-0.001976950792595744
1782891075469342500,4.486342529296875,-0.002074234187602997,0.001164908055216074,-0.00026897608768194914
1782891075479364400,4.4963642578125,-0.0006598292384296656,-0.0012492476962506771,0.0014245279598981142
1782891075489386200,4.50638623046875,-0.00042684178333729506,-0.0014787609688937664,0.002505150157958269
1782891075499408400,4.516408447265625,0.0013295129174366593,-0.00028593093156814575,0.00007608102168887854
1782891075509430500,4.526430419921875,0.002194163389503956,-0.0023760157637298107,0.0016524764942005277
1782891075519452400,4.536452392578125,0.0012047990458086133,-0.0031166409607976675,-0.001526538864709437
1782891075529474600,4.546474609375,0.004355767276138067,0.001448808703571558,0.0030535883270204067
1782891075539496400,4.556496337890625,-0.0042776684276759624,0.001756670419126749,0.002400581259280443
1782891075549518300,4.566518310546875,0.001384794944897294,0.0021943491883575916,-0.0013037384487688541
1782891075559540500,4.57654052734375,0.00017065973952412605,-0.000215278472751379,0.0029948698356747627
1782891075569563400,4.5865634765625,-0.000614549033343792,-0.002314669080078602,0.0010666687740013003
1782891075579585300,4.596585205078125,-0.0006513006519526243,-0.000021154526621103287,0.0017380517674610019
1782891075589607400,4.606607421875,-0.0025416479911655188,0.00025782501325011253,-0.0036137697752565145
1782891075599629300,4.61662939453125,-0.0009557355660945177,0.00040563056245446205,-0.0004142482066527009
1782891075609651200,4.626651123046875,-0.0005704778013750911,0.0003478759899735451,0.0012202771613374352
1782891075619673600,4.636673583984375,0.002675382886081934,-0.0012185955420136452,0.00038218044210225344
1782891075629695500,4.646695556640625,-0.000009845593012869358,0.00003990018740296364,0.00022203673142939806
1782891075639717400,4.65671728515625,0.00012757349759340286,0.00043697748333215714,-0.0006131306290626526
1782891075649739500,4.666739501953125,-0.0016320477006956935,-0.000028630252927541733,0.000742847565561533
1782891075659761400,4.676761474609375,-0.00005865225102752447,-0.00017883256077766418,0.000868282513692975
1782891075669783300,4.686783203125,-0.0015813984209671617,0.0007464028894901276,-0.0015180889749899507
1782891075679805400,4.696805419921875,0.001502808416262269,0.0001815464347600937,0.0014004693366587162
1782891075689828400,4.706828369140625,-0.000768544152379036,0.002062586136162281,0.0008214946137741208
1782891075699850200,4.716850341796875,0.0010093823075294495,-0.0020671775564551353,-0.0012927890056744218
1782891075709872400,4.726872314453125,0.00035799440229311585,0.0003812653012573719,-0.0004932761657983065
1782891075719894500,4.73689453125,0.0017249949742108583,-0.00027626892551779747,0.0019379236036911607
1782891075729916400,4.74691650390625,-0.0001512523740530014,-0.0015801209956407547,0.0010516837937757373
1782891075739938600,4.7569384765625,0.0016919213812798262,-0.0014323154464364052,-0.000024499604478478432
1782891075749960400,4.76696044921875,-0.001183976884931326,0.0010473448783159256,0.0004904059460386634
1782891075759982300,4.776982421875,-0.0015131437685340643,-0.0002008788287639618,0.000056576915085315704
1782891075770004500,4.78700439453125,-0.0006687506102025509,0.00040771812200546265,0.0002577825216576457
1782891075780026400,4.7970263671875,0.0000843914458528161,0.0002513905055820942,-0.0012817909009754658
1782891075790048300,4.80704833984375,-0.0018137854058295488,-0.00020125694572925568,0.0012686563422903419
1782891075800070400,4.8170703125,0.00020249385852366686,-0.00005425047129392624,-0.002819029614329338
1782891075810092500,4.827092529296875,-0.0025202829856425524,-0.0013999142684042454,0.0021558967418968678
1782891075820115200,4.837115234375,0.0017791243735700846,0.00016975263133645058,-0.0012715915217995644
1782891075830137600,4.8471376953125,-0.002104736864566803,0.0012069353833794594,0.0012617121683433652
1782891075840159500,4.857159423828125,-0.0021926211193203926,0.0011462154798209667,-0.0021026593167334795
1782891075850181400,4.867181396484375,0.002125128172338009,-0.0007493258453905582,0.0017508898163214326
1782891075860203500,4.87720361328125,0.00007209728937596083,-0.0002244170755147934,0.0015759201487526298
1782891075870225400,4.887225341796875,-0.003979412838816643,0.001056669745594263,0.0020539038814604282
1782891075880247300,4.897247314453125,0.0004627401358447969,-0.0025891978293657303,-0.0011570695787668228
1782891075890269400,4.90726953125,-0.0015535095008090138,0.00149434432387352,0.0003246300620958209
1782891075900291300,4.917291259765625,0.0003735538921318948,0.0029220646247267723,0.001250344910658896
1782891075910313500,4.9273134765625,-0.0010263434378430247,-0.00025238655507564545,-0.0005603334284387529
1782891075920335600,4.937335693359375,0.001890616724267602,-0.0005304208025336266,0.0009249115828424692
1782891075930357500,4.947357421875,0.0026992703787982464,-0.00026465021073818207,0.0014086553128436208
1782891075940379400,4.95737939453125,-0.0008664359338581562,0.000532966572791338,-0.0011708826059475541
1782891075950402600,4.967402587890625,-0.0004631209885701537,-0.00026902230456471443,-0.0010931129800155759
1782891075960424400,4.977424560546875,0.001097491360269487,0.0013685557059943676,0.0015436828834936023
1782891075970446300,4.9874462890625,0.0008208849467337132,-0.000769549049437046,-0.0002146110637113452
1782891075980468500,4.997468505859375,-0.001229749177582562,-0.00008644862100481987,0.00017261249013245106
1782891075990490400,5.007490478515625,0.00014471367467194796,-0.0018030796200037003,-0.00047114765038713813
1782891076000512300,5.01751220703125,-0.00034877005964517593,-0.0005367463454604149,0.0018450035713613033
1782891076010534400,5.027534423828125,-0.000693358713760972,-0.0017917868681252003,0.0002728969557210803
1782891076020556500,5.037556640625,-0.0002334308810532093,-0.0008381088264286518,0.00011869997251778841
1782891076030578400,5.047578369140625,-0.0002480961848050356,-0.0007400661706924438,-0.003220883896574378
1782891076040600300,5.057600341796875,-0.0028036655858159065,-0.0024543427862226963,0.000048412708565592766
1782891076050622500,5.06762255859375,0.0011993703665211797,0.0007403274066746235,0.0005260988837108016
1782891076060644400,5.077644287109375,0.0011769997654482722,0.0012162341736257076,0.0009026698535308242
1782891076070666200,5.087666259765625,-0.0008138002594932914,0.0007939105853438377,0.0010205371072515845
1782891076080689400,5.097689453125,0.0001545250415802002,-0.0002753487788140774,-0.0018016146495938301
1782891076090711300,5.107711181640625,-0.0016055665910243988,0.0012364927679300308,0.0008455753559246659
1782891076100733400,5.1177333984375,-0.00021912483498454094,-0.0023824768140912056,-0.0011736333835870028
1782891076110755300,5.12775537109375,-0.0011255246354267001,0.0011306796222925186,0.0010205123107880354
1782891076120777500,5.137777587890625,0.0008156533585861325,0.0007730172947049141,-0.000046083820052444935
1782891076130799600,5.147799560546875,-0.0022652235347777605,0.0014144545421004295,0.0007165145361796021
1782891076140821500,5.157821533203125,0.0005838262150064111,-0.0011962419375777245,0.00027789187151938677
1782891076150843600,5.16784375,-0.0022807689383625984,0.0010093445889651775,-0.0011075669899582863
1782891076160865500,5.177865478515625,0.00002126756589859724,0.001405889168381691,-0.000022328924387693405
1782891076170887400,5.187887451171875,0.0015518125146627426,0.0001117093488574028,-0.0005061175907030702
1782891076180909600,5.19790966796875,-0.0015174804721027613,0.0006834901869297028,-0.0022065460216253996
1782891076190931500,5.207931396484375,-0.0009877554839476943,0.00013422733172774315,-0.002862691879272461
1782891076200954400,5.217954345703125,-0.0005624487530440092,-0.000008251983672380447,0.0026194253005087376
1782891076210976500,5.2279765625,0.0003313543274998665,-0.00198574922978878,-0.00009602494537830353
1782891076220998400,5.237998291015625,-0.0007783849723637104,-0.000502368900924921,0.0012810956686735153
1782891076231020500,5.2480205078125,-0.0020110146142542362,-0.0001831301487982273,-0.002637469209730625
1782891076241042700,5.258042724609375,-0.0030073034577071667,0.0007772054523229599,0.00000358757097274065
1782891076251064600,5.268064697265625,-0.00022272393107414246,0.001527912449091673,0.000017524464055895805
1782891076261086500,5.27808642578125,0.0006414717645384371,0.0007361550815403461,-0.00009645882528275251
1782891076271108600,5.288108642578125,0.0011844022665172815,-0.00036543235182762146,-0.0008463987614959478
1782891076281130500,5.298130615234375,0.0015705607365816832,-0.001504998654127121,-0.0007254912634380162
1782891076291152400,5.30815234375,-0.0006332953926175833,-0.0018195277079939842,0.0005686900112777948
1782891076301174500,5.318174560546875,-0.0010546075645834208,0.0010934378951787949,0.00006695056799799204
1782891076311196700,5.32819677734375,0.0018195639131590724,-0.00012645823881030083,0.0034675798378884792
1782891076321218600,5.338218505859375,-0.00006488885264843702,0.00015503773465752602,-0.0014259787276387215
1782891076331241700,5.34824169921875,0.002555043436586857,-0.0008848346769809723,0.00039442465640604496
1782891076341263600,5.358263671875,-0.0008324973750859499,0.002253168262541294,-0.0005171753000468016
1782891076351285500,5.368285400390625,-0.0020742546766996384,0.0024139918386936188,-0.002271937672048807
1782891076361307600,5.3783076171875,-0.0009780974360182881,0.000016082078218460083,0.00037551065906882286
1782891076371329500,5.38832958984375,-0.0009929192019626498,-0.001290733925998211,0.0010760120349004865
1782891076381351400,5.398351318359375,0.00008166627958416939,0.00013858499005436897,0.0016792180249467492
1782891076391373600,5.40837353515625,0.0026205163449048996,-0.00003534974530339241,-0.0009228208800777793
1782891076401395500,5.4183955078125,0.0013584443368017673,-0.0031150290742516518,0.0002012994373217225
1782891076411417600,5.42841748046875,0.0016444656066596508,0.001336962915956974,0.000005772802978754044
1782891076421439700,5.438439697265625,0.00017466710414737463,0.0005651791580021381,0.0001405287766829133
1782891076431461600,5.448461669921875,0.0016420765314251184,-0.0002599661238491535,-0.002660282189026475
1782891076441483500,5.4584833984375,-0.000724674784578383,-0.000027206260710954666,-0.002497829496860504
1782891076451506700,5.468506591796875,-0.0018079153960570693,-0.00028352485969662666,0.0010357932187616825
1782891076461528600,5.478528564453125,0.0006451221997849643,0.002514658495783806,0.0026193088851869106
1782891076471550500,5.488550537109375,-0.00022085197269916534,0.0024237981997430325,-0.0026809689588844776
1782891076481572600,5.498572509765625,-0.0009460307192057371,0.0005489331670105457,0.002425642218440771
1782891076491594500,5.508594482421875,0.0013755315449088812,0.0005769799463450909,0.0003647085977718234
1782891076501616400,5.518616455078125,0.0011795229511335492,-0.0006435466930270195,0.000270965276286006
1782891076511638500,5.528638427734375,0.0005480452091433108,-0.00008316570892930031,-0.0023458325304090977
1782891076521660700,5.53866064453125,-0.00033079797867685556,-0.0026051795575767756,0.002336537465453148
1782891076531682600,5.5486826171875,0.00033698382321745157,0.0009811320342123508,0.0005955991800874472
1782891076541704700,5.55870458984375,0.0014605715405195951,-0.0013278285041451454,0.0023660685401409864
1782891076551726600,5.5687265625,-0.0011578641133382916,-0.0002312404103577137,-0.00001317181158810854
1782891076561748500,5.57874853515625,-0.0012638579355552793,0.00013068318367004395,0.0010214663343504071
1782891076571770400,5.588770263671875,-0.0006141213234513998,-0.00028928136453032494,0.0014014295302331448
1782891076581793500,5.59879345703125,-0.0011779125779867172,0.001572800800204277,-0.0010460156481713057
1782891076591815400,5.6088154296875,0.0014270157553255558,-0.0008054487407207489,0.0024311153683811426
1782891076601837600,5.618837646484375,0.0013101029908284545,-0.0015306277200579643,0.002019657054916024
1782891076611859500,5.628859375,0.0011972906067967415,-0.0011268993839621544,0.000251454534009099
1782891076621881600,5.638881591796875,0.0015570836840197444,0.00018976768478751183,-0.001268944120965898
1782891076631903700,5.64890380859375,0.0003642789670266211,0.0005257069133222103,0.0007860844489187002
1782891076641925600,5.658925537109375,0.002716915449127555,-0.0012213271111249924,-0.0022840076126158237
1782891076651947500,5.668947509765625,0.0002590606454759836,0.0003256876952946186,-0.0004884606460109353
1782891076661969400,5.678969482421875,-0.0011090051848441362,-0.0013393205590546131,-0.0021883563604205847
1782891076671991600,5.688991455078125,-0.00019378948491066694,0.0005790572613477707,0.0009365117875859141
1782891076682013400,5.699013427734375,0.0006871842197142541,0.0013047689571976662,0.00047285540495067835
1782891076692035300,5.709035400390625,-0.0016696698730811477,0.0024946178309619427,-0.0012559272581711411
1782891076702057700,5.7190576171875,-0.00019028387032449245,0.0015262928791344166,-0.0013190442696213722
1782891076712080400,5.729080322265625,-0.0008832623716443777,-0.0023377169854938984,-0.001812080154195428
1782891076722102500,5.7391025390625,-0.0023322883062064648,0.002159030642360449,0.00021431921049952507
1782891076732124700,5.749124755859375,-0.00023154390510171652,0.0007952982559800148,0.00010750757064670324
1782891076742146600,5.759146484375,0.0012441135477274656,0.001545510720461607,0.001242546713910997
1782891076752168700,5.769168701171875,-0.0011663860641419888,0.0006142565980553627,0.0005688908277079463
1782891076762190600,5.779190673828125,-0.001339491456747055,-0.000210524071007967,0.0008123036241158843
1782891076772212500,5.78921240234375,0.0010160001693293452,-0.000019202474504709244,-0.00025831104721874
1782891076782234400,5.799234375,-0.0004836258012801409,-0.00011933734640479088,0.0017784746596589684
1782891076792256500,5.809256591796875,-0.00015004945453256369,-0.00046780146658420563,0.001363760675303638
1782891076802278400,5.8192783203125,-0.00154980702791363,0.0010563256219029427,-0.00027648021932691336
1782891076812300500,5.829300537109375,-0.00021028320770710707,-0.0011854618787765503,-0.0005690872785635293
1782891076822322700,5.83932275390625,-0.0003309244057163596,-0.000993714202195406,0.0027739787474274635
1782891076832345600,5.849345703125,0.000709199404809624,-0.0003111870028078556,0.0005045338766649365
1782891076842367700,5.85936767578125,0.0005499423714354634,-0.00016817543655633926,0.0015397046227008104
1782891076852389600,5.8693896484375,-0.0034779347479343414,0.0017194375395774841,-0.000945395790040493
1782891076862411500,5.87941162109375,-0.0008818852948024869,0.0005409889854490757,-0.0007829429814592004
1782891076872433400,5.889433349609375,0.0010634911013767123,0.0017699380405247211,-0.00013864610809832811
1782891076882455600,5.89945556640625,0.0015098368749022484,0.0003613918088376522,-0.00016900617629289627
1782891076892477400,5.9094775390625,-0.00018611690029501915,-0.0012229685671627522,0.0004716566763818264
1782891076902499300,5.919499267578125,0.00018326344434171915,-0.0003121676854789257,-0.0027507683262228966
1782891076912521700,5.929521728515625,0.0009991871193051338,0.0002766912803053856,0.0021389713510870934
1782891076922543600,5.939543701171875,-0.0013766188640147448,0.0013161227107048035,-0.00016759266145527363
1782891076932565500,5.9495654296875,0.000144367222674191,-0.0003296448849141598,0.001748879672959447
1782891076942587600,5.959587646484375,0.002602731343358755,0.00023174984380602837,0.0006101119797676802
1782891076952609500,5.969609619140625,-0.000488135265186429,0.0023794518783688545,-0.0007853289134800434
1782891076962632700,5.9796328125,0.002067434135824442,0.00014798948541283607,0.0015665085520595312
1782891076972654600,5.989654541015625,-0.00019772350788116455,-0.0015488071367144585,-0.0005591011140495539
1782891076982676500,5.999676513671875,-0.000960985547862947,-0.0017309673130512238,-0.0003026387421414256
1782891076992698400,6.009698486328125,-0.0018508326029404998,0.0013454025611281395,0.000329858623445034
1782891077002720500,6.019720458984375,-0.0034162383526563644,0.0034679416567087173,-0.002008663024753332
1782891077012742400,6.029742431640625,0.00021437369287014008,0.0007516108453273773,-0.00030824809800833464
1782891077022764500,6.0397646484375,0.0027568936347961426,0.0011838418431580067,0.0017258742591366172
1782891077032786700,6.04978662109375,-0.001331017934717238,-0.0009206715039908886,0.0034559741616249084
1782891077042808600,6.05980859375,-0.00032727245707064867,-0.0011726068332791328,0.0005038601811975241
1782891077052830500,6.06983056640625,0.00004303047899156809,-0.0002576899714767933,-0.0010150381131097674
1782891077062852600,6.0798525390625,-0.0008440684759989381,0.0007809428498148918,-0.0008672326803207397
1782891077072874500,6.08987451171875,-0.0006886322516947985,-0.0006984281353652477,-0.001564621925354004
1782891077082897400,6.0998974609375,0.0011950215557590127,0.0004725637845695019,-0.000493764819111675
1782891077092919600,6.10991943359375,-0.0000953946728259325,0.003066390287131071,-0.0017039971426129341
1782891077102941400,6.11994140625,0.0008769254200160503,-0.0010708309710025787,0.002518178429454565
1782891077112963300,6.12996337890625,0.00010618113446980715,0.0005889274179935455,-0.00015159370377659798
1782891077122985700,6.13998583984375,0.00011603487655520439,-0.00046861404553055763,-0.0017042167019098997
1782891077133007600,6.150007568359375,0.00064169178949669,0.00012164656072854996,0.0033541684970259666
1782891077143029800,6.16002978515625,-0.0028670229949057102,0.0006585400551557541,0.0009461381705477834
1782891077153051600,6.1700517578125,-0.002430407330393791,0.0005085626617074013,-0.0007011237903498113
1782891077163073500,6.180073486328125,-0.0003507445799186826,-0.0008062398992478848,-0.0005562478327192366
1782891077173095700,6.190095703125,0.00031002541072666645,-0.0009625507518649101,0.0019044019281864166
1782891077183117600,6.20011767578125,0.00017979682888835669,0.002213535364717245,-0.0019779542926698923
1782891077193139500,6.210139404296875,0.0025119129568338394,-0.0012690350413322449,0.001811049529351294
1782891077203161600,6.22016162109375,-0.0029611492063850164,-0.0009129703976213932,-0.0027600000612437725
1782891077213184500,6.2301845703125,-0.00037946249358356,0.0006646090187132359,0.002128312364220619
1782891077223206400,6.240206298828125,0.0007949916180223227,-0.0005724295042455196,-0.0005867803702130914
1782891077233228800,6.250228759765625,0.0028162773232907057,0.0005137035623192787,-0.0002951783826574683
1782891077243250700,6.260250732421875,0.0027315886691212654,0.0010292916558682919,-0.0005204817862249911
1782891077253272600,6.2702724609375,-0.0022610872983932495,0.0002353554591536522,0.0004672447685152292
1782891077263294700,6.280294677734375,-0.0002519987756386399,-0.0004304349422454834,0.001376447849906981
1782891077273316600,6.290316650390625,-0.001960836350917816,0.0007705921307206154,-0.00037357129622250795
1782891077283338500,6.30033837890625,-0.0006132768467068672,-0.003774625016376376,-0.00012776150833815336
1782891077293360600,6.310360595703125,-0.00007346563506871462,0.00047080544754862785,0.0008653107797726989
1782891077303382500,6.320382568359375,-0.0011919932439923286,-0.00062907999381423,0.0006197673501446843
1782891077313404700,6.33040478515625,-0.0022903112694621086,0.001127529889345169,-0.003603477729484439
1782891077323426800,6.3404267578125,0.00021652202121913433,-0.000002982094883918762,0.0008256253786385059
1782891077333449700,6.35044970703125,-0.0015610966365784407,0.0002891584299504757,-0.0004269629716873169
1782891077343471600,6.3604716796875,-0.00028304557781666517,0.000711535569280386,-0.0006253684987314045
1782891077353493800,6.37049365234375,0.00015957269351929426,-0.0019968110136687756,0.003311044769361615
1782891077363515600,6.380515625,-0.001236456329934299,0.0012192223221063614,-0.00039021659176796675
1782891077373537500,6.39053759765625,0.0027919490821659565,0.001037143636494875,-0.0006739519885741174
1782891077383559700,6.4005595703125,-0.00041023583617061377,-0.0018057804554700851,0.002180424053221941
1782891077393581600,6.41058154296875,0.0013347223866730928,0.0002874149940907955,-0.00277035403996706
1782891077403603500,6.420603515625,0.0006524205091409385,-0.00024042325094342232,0.00009653880260884762
1782891077413625600,6.43062548828125,-0.0007396062137559056,-0.0022502844221889973,0.002699791919440031
1782891077423647700,6.440647705078125,0.0009672138257883489,0.0005676061846315861,0.0011269289534538984
1782891077433669600,6.450669677734375,-0.0013668419560417533,0.0018189274705946445,0.0023738574236631393
1782891077443691800,6.46069189453125,-0.0005274135619401932,-0.00298514892347157,0.0004593110643327236
1782891077453714700,6.470714599609375,0.0002505473094061017,-0.0016523376107215881,-0.001527117332443595
1782891077463736600,6.480736572265625,0.00028756516985595226,0.001993263140320778,-0.004603068344295025
1782891077473758700,6.4907587890625,0.000585534144192934,-0.0013202191330492496,0.0007903574733063579
1782891077483780600,6.500780517578125,-0.0007758738938719034,-0.000449898187071085,0.0006577320164069533
1782891077493802500,6.510802490234375,-0.0021736961789429188,0.0017617125995457172,0.0010558506473898888
1782891077503824600,6.52082470703125,-0.0013009782414883375,-0.0013829483650624752,0.0007642344571650028
1782891077513846500,6.530846435546875,-0.0002494028303772211,-0.0013301204890012741,-0.0004011479904875159
1782891077523868700,6.54086865234375,0.0008507489692419767,-0.0005327700637280941,-0.0013313901145011187
1782891077533890800,6.550890869140625,-0.002122209407389164,-0.0003936714492738247,-0.0025713653303682804
1782891077543912700,6.56091259765625,-0.001362942042760551,0.0009144730865955353,-0.00022991420701146126
1782891077553934600,6.5709345703125,0.001119187567383051,-0.0014568562619388103,0.00043821753934025764
1782891077563956700,6.580956787109375,0.00005765154492110014,-0.00019824644550681114,0.0013748513301834464
1782891077573978600,6.590978515625,-0.0011287227971479297,0.0009491252712905407,0.0007932276930660009
1782891077584001500,6.60100146484375,0.0005192413227632642,-0.0008719442412257195,-0.0023711402900516987
1782891077594023700,6.611023681640625,-0.001212714472785592,-0.0007299873977899551,-0.00022125185932964087
1782891077604045600,6.621045654296875,0.0029806990642100573,-0.0009371810592710972,-0.001230589929036796
1782891077614067500,6.6310673828125,0.002455988898873329,0.0009753820486366749,-0.0005195065750740469
1782891077624089600,6.641089599609375,-0.000421290285885334,0.00042650429531931877,-0.00037756015080958605
1782891077634111700,6.65111181640625,-0.00024801783729344606,0.0022189156152307987,-0.002699085045605898
1782891077644133600,6.661133544921875,-0.0008147385669872165,0.0012138383463025093,0.0009840666316449642
1782891077654155800,6.67115576171875,-0.00002020946703851223,0.0013307775370776653,0.001831732108257711
1782891077664177700,6.681177734375,-0.0033134743571281433,-0.0009054788388311863,0.0003345030127093196
1782891077674199600,6.691199462890625,-0.001000360120087862,0.0003047306090593338,-0.0017659693257883191
1782891077684221700,6.7012216796875,0.001281969016417861,-0.00047877104952931404,-0.0021947382483631372
1782891077694243600,6.71124365234375,0.000039975857362151146,0.0010050763376057148,-0.0018410896882414818
1782891077704265500,6.721265380859375,0.0004980395897291601,-0.001728658564388752,0.000009541050530970097
1782891077714288600,6.73128857421875,-0.0010820350144058466,-0.0032516755163669586,0.0011758329346776009
1782891077724310500,6.741310546875,0.0026690273080021143,-0.0018356731161475182,-0.003351807128638029
1782891077734332700,6.751332763671875,-0.0012191171990707517,0.0011863126419484615,0.001168524264357984
1782891077744354800,6.761354736328125,0.00021819095127284527,0.001886990386992693,0.0022476371377706528
1782891077754376700,6.771376708984375,-0.00003253307659178972,-0.0017006667330861092,-0.000286462833173573
1782891077764398600,6.781398681640625,0.00039490428753197193,0.0026160511188209057,-0.000533604237716645
1782891077774420700,6.791420654296875,0.0016152078751474619,-0.0016445419751107693,0.00006842601578682661
1782891077784442600,6.801442626953125,0.0012817800743505359,0.0006780009716749191,-0.0014378578634932637
1782891077794464500,6.811464599609375,-0.0010421796469017863,-0.0005730181001126766,0.0001731672091409564
1782891077804486400,6.821486328125,0.002569865668192506,0.0006091590039432049,0.0002525293966755271
1782891077814508800,6.8315087890625,-0.004481761250644922,0.001693478785455227,-0.00037328468170017004
1782891077824530700,6.84153076171875,-0.0012849026825278997,-0.002241607755422592,-0.0012105825589969754
1782891077834552600,6.851552490234375,-0.0011617187410593033,0.00007526017725467682,-0.0029265847988426685
1782891077844575700,6.86157568359375,0.0010005016811192036,0.0015850062482059002,-0.00011428690049797297
1782891077854597600,6.87159765625,-0.00142387836240232,-0.0007230257615447044,-0.0013471939601004124
1782891077864619800,6.881619873046875,0.00022781419102102518,0.00047646183520555496,-0.00033972004894167185
1782891077874641700,6.8916416015625,-0.0010585477575659752,0.00008212216198444366,0.0001423526555299759
1782891077884663600,6.90166357421875,0.0012304391711950302,-0.002548814285546541,0.0012928383657708764
1782891077894685400,6.911685546875,0.0010687165195122361,0.0013150167651474476,-0.0039578936994075775
1782891077904707600,6.92170751953125,0.00010997848585247993,0.002311305608600378,-0.0006917928112670779
1782891077914729500,6.9317294921875,0.00002101773861795664,0.0004423712380230427,-0.0013313802191987634
1782891077924751600,6.941751708984375,0.001125696930103004,0.00048098666593432426,0.0015331158647313714
1782891077934773800,6.951773681640625,-0.00010961911175400019,0.002090207301080227,0.0019155777990818024
1782891077944795600,6.961795654296875,0.0013599131489172578,-0.0004696231335401535,0.0010183588601648808
1782891077954817500,6.971817626953125,-0.0012592332204803824,-0.000030231662094593048,0.0009416213724762201
1782891077964840700,6.9818408203125,-0.001376944943331182,0.0017607444897294044,0.0024007672909647226
1782891077974862600,6.991862548828125,0.000011487631127238274,-0.0008967118337750435,-0.0018304490949958563
1782891077984884700,7.001884765625,-0.0011262147454544902,-0.002100460696965456,0.0005906306905671954
1782891077994906600,7.01190673828125,-0.0013984802644699812,-0.001638074405491352,-0.001085513737052679
1782891078004928500,7.021928466796875,0.001038578455336392,-0.0012114359997212887,0.00006443914026021957
1782891078014950400,7.031950439453125,-0.0007604733109474182,0.0007463246583938599,-0.0010630355682224035
1782891078024972800,7.041972900390625,-0.0008949628099799156,0.0009319470264017582,0.000206227065064013
1782891078034994700,7.05199462890625,0.0010782526805996895,-0.0005761925131082535,0.00025901314802467823
1782891078045016600,7.0620166015625,0.0006654626922681928,-0.001214818563312292,-0.0017045355634763837
1782891078055038700,7.072038818359375,-0.002351642120629549,0.0006173280999064445,0.0013041856000199914
1782891078065060600,7.082060546875,-0.000028832932002842426,-0.0012636627070605755,-0.0006063662003725767
1782891078075082500,7.09208251953125,-0.002455641981214285,-0.00006494252011179924,0.002036389894783497
1782891078085105700,7.102105712890625,-0.0007522843079641461,-0.0011757472530007362,0.0023114944342523813
1782891078095127600,7.11212744140625,-0.0018556233262643218,-0.0009132809937000275,-0.0013809611555188894
1782891078105149400,7.1221494140625,-0.0023839944042265415,-0.00132047850638628,-0.0010991987073794007
1782891078115171600,7.132171630859375,0.0004276541876606643,0.00022768694907426834,-0.00021784345153719187
1782891078125193500,7.142193359375,0.0007919745985418558,-0.0011654123663902283,0.0005531416973099113
1782891078135215600,7.152215576171875,0.0003281503450125456,0.0011842725798487663,0.0004055115859955549
1782891078145237500,7.162237548828125,0.0025108770933002234,0.001799729187041521,0.00042601791210472584
1782891078155259600,7.172259765625,-0.0002022990956902504,-0.0010827663354575634,0.0002059487160295248
1782891078165281500,7.182281494140625,0.0005228796508163214,-0.000957065261900425,0.00036706996615976095
1782891078175303400,7.192303466796875,-0.00018220441415905952,-0.0009297681972384453,0.0019808756187558174
1782891078185325300,7.2023251953125,-0.0011310885893180966,-0.0020291213877499104,-0.0013371567474678159
1782891078195347500,7.212347412109375,0.0009459429420530796,-0.0007232832722365856,0.0005093847867101431
1782891078205369600,7.22236962890625,-0.001046101446263492,-0.0022764387540519238,0.000348796253092587
1782891078215392500,7.232392578125,0.002385538537055254,-0.00037693697959184647,-0.000730507483240217
1782891078225414400,7.242414306640625,-0.00014632870443165302,-0.0013471264392137527,-0.0013779219007119536
1782891078235436500,7.2524365234375,0.0025205626152455807,-0.00044707581400871277,-0.00008380634244531393
1782891078245458700,7.262458740234375,0.0018292060121893883,-0.0010127308778464794,0.0006163385696709156
1782891078255480600,7.27248046875,0.0033683462534099817,0.0007987748831510544,-0.00044347881339490414
1782891078265502500,7.28250244140625,0.0012641827343031764,-0.0003264108672738075,0.0012151378905400634
1782891078275524600,7.292524658203125,0.0011878337245434523,-0.0012169755063951015,0.00019899418111890554
1782891078285546500,7.30254638671875,-0.000684102182276547,-0.0000454513356089592,0.0002013910561800003
1782891078295568400,7.312568359375,-0.0006900239968672395,-0.0010588951408863068,0.0010410366812720895
1782891078305590300,7.32259033203125,0.0006261102389544249,0.002057536505162716,-0.0012498144060373306
1782891078315612700,7.33261279296875,-0.00026958563830703497,0.0014011431485414505,-0.0005134066450409591
1782891078325634600,7.342634521484375,0.0016319113783538342,-0.00003083841875195503,-0.0005142056033946574
1782891078335656400,7.352656494140625,-0.0007252580253407359,-0.0006166798993945122,-0.0005495686200447381
1782891078345679600,7.3626796875,0.00012429035268723965,0.0007873387075960636,-0.00012745766434818506
1782891078355701500,7.372701416015625,-0.0019306481117382646,0.00009192805737257004,0.0008477148367092013
1782891078365723600,7.3827236328125,0.0017471772152930498,0.0019215196371078491,-0.0018023967277258635
1782891078375745500,7.39274560546875,0.002147264778614044,0.002746444195508957,-0.0017847296549007297
1782891078385767400,7.402767333984375,0.0013749480713158846,0.0006212415173649788,0.003498183097690344
1782891078395789300,7.412789306640625,-0.0012938128784298897,0.0007279166020452976,-0.000834285223390907
1782891078405811500,7.4228115234375,-0.0007017921889200807,0.0033998661674559116,-0.0011267003137618303
1782891078415833600,7.43283349609375,-0.001750073628500104,0.001238865777850151,-0.0018888722406700253
1782891078425855500,7.44285546875,0.0005777953774668276,0.001317429356276989,-0.00031334615778177977
1782891078435877600,7.452877685546875,0.0015118364244699478,0.0021492326632142067,0.001177854253910482
1782891078445899500,7.4628994140625,-0.0014631807571277022,0.00016810745000839233,-0.0009433535160496831
1782891078455921400,7.47292138671875,-0.00003811495844274759,-0.0015998617745935917,-0.00235986546613276
1782891078465943600,7.482943603515625,0.0009310093009844422,-0.0034494271967560053,-0.0002074986696243286
1782891078475966500,7.492966552734375,0.00024439371190965176,0.0015811719931662083,-0.0018687499687075615
1782891078485988600,7.502988525390625,0.000019622966647148132,0.0002780873328447342,0.0015606025699526072
1782891078496010500,7.513010498046875,-0.001671151607297361,0.0009202021174132824,-0.00281325401738286
1782891078506032400,7.523032470703125,0.0010793611872941256,0.0003337739035487175,0.002188428770750761
1782891078516054300,7.53305419921875,0.0008328360272571445,0.0008159005083143711,-0.0006854534731246531
1782891078526076700,7.54307666015625,0.00013029412366449833,-0.0026414154563099146,-0.000518473272677511
1782891078536098600,7.5530986328125,-0.0013594473712146282,0.0011470462195575237,-0.00032264506444334984
1782891078546120400,7.563120361328125,-0.002239622175693512,-0.0011504627764225006,0.0023623539600521326
1782891078556142600,7.573142578125,0.00036560220178216696,0.000893681775778532,0.0009678801288828254
1782891078566164500,7.58316455078125,0.0009094197303056717,0.00046837516129016876,-0.0006292174803093076
1782891078576186400,7.593186279296875,0.0005725161172449589,0.0024185581132769585,0.002172366715967655
1782891078586208500,7.60320849609375,-0.0008948856266215444,0.0005511492490768433,0.000238379230722785
1782891078596231400,7.6132314453125,0.0010276902467012405,0.0015759528614580631,0.0018932900857180357
1782891078606253300,7.62325341796875,0.0010726975742727518,-0.0012323507107794285,0.0014442810788750648
1782891078616275500,7.633275390625,0.0002165287733078003,0.0013009114190936089,0.000615464523434639
1782891078626297600,7.643297607421875,-0.00035072455648332834,0.0009246068075299263,-0.0007419487228617072
1782891078636319500,7.653319580078125,-0.0013923619408160448,-0.0034755533561110497,-0.00021187879610806704
1782891078646341600,7.663341552734375,0.0005360328941605985,0.0003167879767715931,-0.0010172186885029078
1782891078656363500,7.673363525390625,0.00026546092703938484,0.0011989092454314232,-0.000057648285292088985
1782891078666385400,7.683385498046875,0.00022498087491840124,-0.0009851492941379547,-0.0000781546114012599
1782891078676407600,7.693407470703125,-0.00012579443864524364,0.0008660461753606796,0.004092826042324305
1782891078686429400,7.703429443359375,-0.00011460913810878992,0.0016910936683416367,0.0006914368132129312
1782891078696451300,7.713451416015625,-0.0004800081951543689,0.0018670279532670975,-0.0010422616032883525
1782891078706473500,7.723473388671875,0.0005032308981753886,0.0017429245635867119,0.00015429663471877575
1782891078716495600,7.73349560546875,-0.0023534672800451517,-0.00040354905650019646,-0.002072660718113184
1782891078726518300,7.743518310546875,-0.0007214820943772793,0.0023024887777864933,0.00004694925155490637
1782891078736540700,7.753540771484375,-0.0014391335425898433,-0.0010933931916952133,-0.0005513979122042656
1782891078746562600,7.7635625,-0.0021067881025373936,0.000628606416285038,-0.001338095753453672
1782891078756584400,7.77358447265625,0.0006117921438999474,0.0004978110082447529,-0.0004004437942057848
1782891078766606600,7.783606689453125,0.0014834447065368295,-0.0006971494294703007,0.0008259419118985534
1782891078776628500,7.79362841796875,0.000620791397523135,0.0002753906883299351,0.00011181528680026531
1782891078786650400,7.803650390625,-0.00038029078859835863,0.0009936452843248844,0.0007568328874185681
1782891078796672500,7.813672607421875,0.00045113026862964034,-0.0022273100912570953,0.002158498391509056
1782891078806694400,7.8236943359375,-0.00023649795912206173,-0.0004935921169817448,0.0015030942158773541
1782891078816716500,7.833716552734375,0.0012621384812518954,-0.0001223282888531685,0.0010879716137424111
1782891078826738700,7.84373876953125,-0.00006757793016731739,-0.0005899793468415737,0.0002573317615315318
1782891078836760600,7.853760498046875,0.001479589962400496,0.0014574411325156689,-0.0017045596614480019
1782891078846783500,7.863783447265625,-0.0009132602717727423,0.000941853504627943,-0.0025727502070367336
1782891078856805600,7.8738056640625,-0.0006171355489641428,-0.0015410869382321835,-0.00039264431688934565
1782891078866827500,7.88382763671875,0.0017299081664532423,-0.002756553702056408,-0.0014155644457787275
1782891078876849400,7.893849365234375,0.0005408162251114845,-0.00004856148734688759,0.003183778841048479
1782891078886871600,7.90387158203125,0.00033761700615286827,-0.000672806054353714,-0.0025896881707012653
1782891078896891600,7.9138916015625,-0.0001027293037623167,-0.00014001689851284027,-0.0006888923817314208
1782891078906913500,7.92391357421875,-0.0008564039599150419,-0.0001791650429368019,0.0011734560830518603
1782891078916936400,7.9339365234375,-0.0005252538248896599,0.000401071272790432,0.00104043772444129
1782891078926958600,7.94395849609375,-0.0008616112172603607,-0.0012548821978271008,0.0003568042302504182
1782891078936980500,7.95398046875,-0.0016156199853867292,0.004111907910555601,-0.0005359509377740324
1782891078947002400,7.96400244140625,-0.0016728779301047325,0.0010239724069833755,-0.0020837802439928055
1782891078957024500,7.9740244140625,0.0003882074961438775,-0.0004403195343911648,-0.000946204992942512
1782891078967046400,7.98404638671875,0.002749366220086813,-0.0010776137933135033,-0.0016149247530847788
1782891078977068500,7.994068603515625,0.00017251947429031134,-0.00012030545622110367,-0.0007676368695683777
1782891078987090700,8.004090576171874,-0.00196626503020525,0.0012911702506244183,0.0006401099963113666
1782891078997112600,8.014112548828125,-0.001185760134831071,-0.0007149474695324898,0.0009364288998767734
1782891079007134500,8.024134521484376,0.00111361313611269,0.0019615297205746174,-0.0004830360412597656
1782891079017156600,8.034156494140625,0.0016096399631351233,0.0017109238542616367,0.0023431009612977505
1782891079027178500,8.044178466796875,-0.000676417606882751,-0.00021507451310753822,-0.0008319197222590446
1782891079037201400,8.054201416015625,0.00032779615139588714,0.000788525678217411,-0.0005373020539991558
1782891079047223600,8.0642236328125,-0.0010104423854500055,-0.0009883353486657143,-0.0011476986110210419
1782891079057245400,8.074245361328124,0.0007823111955076456,0.0005434788763523102,-0.0010924013331532478
1782891079067267300,8.084267333984375,-0.0011250448878854513,0.00016424478963017464,-0.0001251412322744727
1782891079077289500,8.09428955078125,-0.0006705442210659385,0.0006158920004963875,-0.001169030787423253
1782891079087311600,8.1043115234375,-0.0007280685240402818,-0.0012222221121191978,0.0005572302034124732
1782891079097333500,8.11433349609375,-0.0022141295485198498,0.002057732082903385,-0.0013803214533254504
1782891079107355600,8.124355712890624,0.000340907194186002,-0.0012869322672486305,0.0009081328753381968
1782891079117377500,8.13437744140625,-0.0009428393095731735,-0.001473939511924982,-0.001529648550786078
1782891079127399400,8.1443994140625,-0.0010453711729496717,-0.0008590156212449074,-0.0011040754616260529
1782891079137422300,8.15442236328125,0.00037934485590085387,-0.0016134558245539665,0.0006784393917769194
1782891079147444200,8.1644443359375,-0.002080883365124464,-0.0006999913603067398,-0.0005463484558276832
1782891079157466000,8.174466064453124,0.0005758803454227746,0.00014472892507910728,0.0010560961673036218
1782891079167489300,8.1844892578125,-0.00038179231341928244,-0.0006254571489989758,0.0004291881341487169
1782891079177511200,8.19451123046875,0.0006451506051234901,-0.00039434898644685745,0.001286644022911787
1782891079187533000,8.204532958984375,-0.0013604759005829692,0.0008845007978379726,0.0010773194953799248
1782891079197555200,8.21455517578125,-0.001594369299709797,0.0009552803821861744,-0.0015738438814878464
1782891079207577300,8.224577392578125,0.0001918127527460456,-0.0009864303283393383,-0.0003426645416766405
1782891079217599200,8.23459912109375,-0.0012341710971668363,0.0015765908174216747,-0.0009532325202599168
1782891079227621400,8.244621337890624,0.0027043777517974377,-0.000931840855628252,0.0022422943729907274
1782891079237643300,8.254643310546875,0.00023753073764964938,-0.0027763701509684324,0.0034931013360619545
1782891079247665200,8.2646650390625,0.0025965587701648474,0.0010798871517181396,0.0001335234846919775
1782891079257687300,8.274687255859375,0.0009334464557468891,0.00021171756088733673,0.000791832571849227
1782891079267709200,8.284709228515625,-0.00005991256330162287,0.0007731118239462376,-0.0014777133474126458
1782891079277732000,8.294732177734375,0.0016202370170503855,0.0007671765051782131,-0.0009350820910185575
1782891079287754200,8.304754150390625,-0.001492998213507235,-0.00022804643958806992,0.0006210029823705554
1782891079297776000,8.314776123046874,-0.0008997450349852443,0.002188289538025856,-0.0012493206886574626
1782891079307798300,8.32479833984375,0.0018089560326188803,-0.0016037849709391594,-0.0014692978002130985
1782891079317821200,8.3348212890625,0.0011077092494815588,-0.0018026363104581833,0.0027026920579373837
1782891079327843000,8.344843017578125,-0.0014499907847493887,-0.0014191409572958946,-0.0003482253523543477
1782891079337865500,8.354865478515626,-0.0013824861962348223,-0.001399114727973938,-0.00014475861098617315
1782891079347887400,8.364887451171874,-0.0003989808028563857,-0.0003756619989871979,-0.0006515582208521664
1782891079357909200,8.3749091796875,0.0005151552031747997,-0.00015358906239271164,-0.0001688036136329174
1782891079367931400,8.384931396484374,0.000620350067038089,0.0006067436188459396,0.0016855554422363639
1782891079377953300,8.394953369140625,0.0010363005567342043,-0.0012497673742473125,-0.0011210038792341948
1782891079387975200,8.40497509765625,0.002344711683690548,-0.00030114920809865,0.0008582574082538486
1782891079397997000,8.4149970703125,0.00020678085274994373,0.00042128097265958786,0.001199261867441237
1782891079408019200,8.425019287109375,-0.0019953870214521885,0.002292151562869549,0.001378226443193853
1782891079418041300,8.435041259765624,0.0003712301258929074,-0.0017040092498064041,0.0006491307867690921
1782891079428063200,8.445063232421875,0.0007621821714565158,0.0011839228682219982,0.00009679119102656841
1782891079438085400,8.45508544921875,-0.0024527553468942642,0.0023947255685925484,0.000924470485188067
1782891079448108300,8.4651083984375,-0.00004099670331925154,-0.002312411554157734,0.0024227648973464966
1782891079458130400,8.47513037109375,0.0022278940305113792,0.0012141680344939232,0.0018392999190837145
1782891079468152300,8.48515234375,0.0002150769578292966,-0.00020236754789948463,0.0010041326750069857
1782891079478174200,8.49517431640625,0.002326794434338808,-0.0001850309781730175,0.0021923428867012262
1782891079488196000,8.505196044921876,-0.0003739171661436558,-0.000314460601657629,-0.0010322125162929296
1782891079498218200,8.51521826171875,-0.0024557074066251516,0.00012397626414895058,0.00215615751221776
1782891079508240100,8.525240234375,0.00018321885727345943,-0.00026404624804854393,0.0031191566959023476
1782891079518262300,8.53526220703125,-0.0012757465010508895,-0.0011523053981363773,0.0013743983581662178
1782891079528284400,8.545284423828125,0.002397551666945219,-0.0003951690159738064,0.0005970215424895287
1782891079538306300,8.555306396484376,0.0010759516153484583,-0.0013924934901297092,0.0024028350599110126
1782891079548328200,8.565328125,-0.00019544153474271297,-0.0005006007850170135,-0.00021824822761118412
1782891079558350300,8.575350341796875,0.0008283457718789577,-0.0007648412138223648,-0.001223159721121192
1782891079568373200,8.585373291015625,-0.00029470922891050577,-0.0003342078998684883,0.0012240190990269184
1782891079578395400,8.5953955078125,-0.0019866912625730038,0.0011815410107374191,-0.0009656581096351147
1782891079588417300,8.605417236328124,0.0015031150542199612,-0.0017601861618459225,-0.00004180753603577614
1782891079598439200,8.615439208984375,0.000008929171599447727,-0.0009010103531181812,0.0010736448457464576
1782891079608461000,8.6254609375,0.00012610829435288906,-0.00008368631824851036,0.002214010339230299
1782891079618483200,8.635483154296875,-0.0013232509372755885,0.0012989360839128494,0.0002592330565676093
1782891079628505300,8.64550537109375,0.0002514761872589588,0.0013410141691565514,0.00025071087293326855
1782891079638527200,8.65552734375,0.00044161081314086914,0.0032976996153593063,-0.0026231573428958654
1782891079648549400,8.66554931640625,-0.0003655933542177081,-0.0007266029715538025,-0.0013408453669399023
1782891079658571300,8.6755712890625,-0.00007055513560771942,0.0000330144539475441,0.0007050849962979555
1782891079668593200,8.68559326171875,-0.00209003034979105,-0.000223448034375906,-0.0004400741891004145
1782891079678615300,8.695615234375,0.000876832171343267,-0.00018637347966432571,0.000947115127928555
1782891079688638200,8.70563818359375,0.001597217284142971,-0.00021966313943266869,0.0006046326598152518
1782891079698660000,8.71566015625,0.001733493059873581,-0.0010362248867750168,0.0011867674766108394
1782891079708682200,8.72568212890625,0.001554794842377305,-0.0002596471458673477,0.0017513578059151769
1782891079718704000,8.7357041015625,-0.00015474087558686733,0.00036154454573988914,-0.001744142733514309
1782891079728726300,8.745726318359376,-0.0006703288527205586,-0.0007745600305497646,0.0005051631014794111
1782891079738748400,8.75574853515625,0.0003705896087922156,0.000042357947677373886,0.0005703895585611463
1782891079748770300,8.765770263671875,0.0004518160712905228,-0.0003190329298377037,0.0008044813293963671
1782891079758792200,8.775792236328124,-0.0017965537263080478,-0.0026984508149325848,-0.0015421172138303518
1782891079768814300,8.785814453125,-0.0018325065029785037,-0.0013812514953315258,-0.002690738532692194
1782891079778836200,8.795836181640626,0.0004817206063307822,-0.000366999302059412,-0.0004608289455063641
1782891079788858000,8.805858154296875,0.000016466365195810795,-0.00022212322801351547,0.0009415916865691543
1782891079798880300,8.81588037109375,0.0017399664502590895,-0.002223745919764042,0.0034673279151320457
1782891079808902100,8.825902099609374,-0.0023719542659819126,0.0015257187187671661,-0.0001620277762413025
1782891079818925000,8.835925048828125,0.0004717942210845649,-0.0000151805579662323,0.0004019085317850113
1782891079828947200,8.845947265625,0.0011234697885811329,-0.0008239825256168842,0.000941997510381043
1782891079838969300,8.85596923828125,0.002545191440731287,-0.000043196603655815125,-0.0021539805456995964
1782891079848991200,8.8659912109375,0.0005906975129619241,-0.00004532700404524803,0.001343282638117671
1782891079859013400,8.876013427734375,-0.001843370613642037,-0.000056881457567214966,-0.0001470101997256279
1782891079869035300,8.88603515625,0.00027384248096495867,-0.0004419744946062565,0.0007914878660812974
1782891079879057200,8.89605712890625,0.0015689200954511762,-0.0012231566943228245,-0.0012242401717230678
1782891079889079300,8.906079345703125,-0.0005608098581433296,-0.0006207497790455818,0.0010879163164645433
1782891079899101200,8.91610107421875,0.0005751922726631165,-0.000395885668694973,-0.0019722776487469673
1782891079909123000,8.926123046875,-0.00227572163566947,0.0013274457305669785,-0.00029901356901973486
1782891079919145500,8.9361455078125,-0.00005679065361618996,0.0011568902991712093,-0.001106701442040503
1782891079929167400,8.94616748046875,-0.0013942301739007235,-0.0011696475557982922,-0.0003311889013275504
1782891079939190300,8.956190185546875,0.00023955514188855886,0.0010279198177158833,0.00022785947658121586
1782891079949212400,8.96621240234375,-0.0019484978402033448,-0.0011348333209753036,-0.0017591249197721481
1782891079959234300,8.976234375,-0.00001749955117702484,0.0012636343017220497,0.0004230083432048559
1782891079969256200,8.986256103515625,0.001353229396045208,-0.0010594408959150314,-0.00033332931343466043
1782891079979278300,8.9962783203125,-0.0006081557366997004,0.0006343475542962551,0.0013285005697980523
1782891079989300200,9.00630029296875,0.0011822874657809734,-0.00038670841604471207,0.0024345112033188343
1782891079999322000,9.016322021484376,0.0008522433927282691,-0.0016241157427430153,-0.0016120618674904108
1782891080009344300,9.02634423828125,-0.002262856112793088,0.0020752809941768646,-0.00021763076074421406
1782891080019366100,9.0363662109375,0.0015527541982010007,0.0004324857145547867,0.00045708136167377234
1782891080029388300,9.04638818359375,-0.0004512745654210448,-0.00034568971022963524,0.00003869878128170967
1782891080039410400,9.056410400390625,-0.000929943285882473,0.0012298845686018467,0.000819450942799449
1782891080049432300,9.066432373046876,-0.0013677668757736683,-0.00031315069645643234,-0.0014391759177669883
1782891080059454200,9.0764541015625,0.0008906583534553647,0.0011832332238554955,-0.0005774514866061509
1782891080069477400,9.086477294921876,0.002447808627039194,-0.000585638452321291,0.0021131401881575584
1782891080079499300,9.096499267578125,-0.0018523602047935128,0.0016942061483860016,0.0018377832602709532
1782891080089521200,9.106521240234375,0.0009916296694427729,-0.00006161583587527275,0.0003911543171852827
1782891080099543300,9.116543212890624,-0.0021168270613998175,-0.0010955729521811008,0.00033543934114277363
1782891080109565200,9.126565185546875,-0.00018976361025124788,-0.001580001786351204,-0.0015362302074208856
1782891080119587000,9.136587158203126,-0.0011901062680408359,-0.00003730412572622299,0.0009592017158865929
1782891080129609500,9.146609375,0.0006418821285478771,-0.00023730751127004623,-0.00027863564901053905
1782891080139630800,9.156630859375,0.0025505749508738518,0.0005323640070855618,0.0009083340410143137
1782891080149653000,9.166653076171874,0.003934087231755257,-0.0013012224808335304,0.0013632019981741905
1782891080159675000,9.1766748046875,0.0014318075263872743,0.0012890594080090523,-0.0005980308051221073
1782891080169696800,9.18669677734375,0.0024025295861065388,0.000022992491722106934,-0.0017312058480456471
1782891080179719000,9.196718994140625,0.0005149642820470035,-0.0021130614914000034,-0.0020140563137829304
1782891080189741800,9.206741943359376,0.00020710285753011703,-0.0008786860853433609,0.000002489425241947174
1782891080199763700,9.216763671875,0.0036154231056571007,-0.0005839075893163681,-0.0017527551390230656
1782891080209785900,9.226785888671875,-0.0016096987528726459,-0.0009737941436469555,-0.0010321037843823433
1782891080219807700,9.236807861328124,0.0002602676395326853,-0.003369997488334775,0.001082732225768268
1782891080229830000,9.246829833984375,-0.0022612130269408226,0.0012841424904763699,0.0001282552257180214
1782891080239852000,9.25685205078125,0.0009730845922604203,-0.0016014478169381618,-0.0008154642418958247
1782891080249874000,9.2668740234375,-0.0010533146560192108,0.0014145816676318645,0.0014133353251963854
1782891080259895800,9.276895751953125,-0.0011716813314706087,-0.000751313753426075,0.0019409309606999159
1782891080269918000,9.28691796875,0.0006858734996058047,-0.003802497172728181,0.0012945816852152348
1782891080279939800,9.29693994140625,0.0010671886848285794,0.0010428414680063725,-0.0014643275644630194
1782891080289961700,9.306961669921876,-0.0008225903147831559,-0.0014344309456646442,0.0006558150053024292
1782891080299984000,9.31698388671875,0.0010166047140955925,-0.0018530995585024357,0.0033140769228339195
1782891080310006800,9.3270068359375,-0.00185375043656677,0.0009858300909399986,-0.00045988860074430704
1782891080320028700,9.337028564453124,0.00035002315416932106,-0.00018488196656107903,0.001791422488167882
1782891080330051000,9.347051025390625,-0.0021738545037806034,-0.0008450797758996487,-0.00013404292985796928
1782891080340073000,9.357072998046876,-0.0008028041338548064,0.0008450532332062721,-0.0014909252058714628
1782891080350094800,9.3670947265625,0.0001221117563545704,-0.003221859922632575,-0.0023138420656323433
1782891080360117000,9.377116943359376,-0.0018019038252532482,0.0027663339860737324,-0.0016368991928175092
1782891080370139000,9.387138916015624,0.00005165638867765665,0.0006443271413445473,-0.0004509935970418155
1782891080380160800,9.397160888671875,-0.0023504593409597874,-0.0010010357946157455,0.002810634672641754
1782891080390183000,9.407182861328126,-0.0018513827817514539,0.000049048569053411484,-0.00015266460832208395
1782891080400204800,9.417204833984375,0.0006666879053227603,-0.0008540991693735123,0.0014003791147843003
1782891080410227000,9.42722705078125,0.0017631113296374679,0.0013051917776465416,-0.0016068624099716544
1782891080420249000,9.4372490234375,-0.001954155508428812,0.00039232103154063225,0.0014369996497407556
1782891080430271000,9.44727099609375,-0.0007964794058352709,0.00135798379778862,-0.00151884276419878
1782891080440294000,9.4572939453125,0.00001691817305982113,0.0030413782224059105,-0.003551977453753352
1782891080450316000,9.46731591796875,-0.00009493459947407246,0.000044522807002067566,0.002488870872184634
1782891080460338000,9.477337890625,0.0009927550563588738,0.0005317800678312778,-0.001142621855251491
1782891080470359800,9.48735986328125,-0.00033110228832811117,-0.00043974118307232857,-0.00136526208370924
1782891080480382000,9.4973818359375,-0.0013246285961940885,-0.0001106085255742073,0.0010189743479713798
1782891080490403800,9.50740380859375,0.0006658179918304086,-0.0017407294362783432,0.0013329609064385295
1782891080500425700,9.51742578125,-0.0019869080279022455,-0.0013276697136461735,0.00074869638774544
1782891080510447900,9.52744775390625,0.000045083812437951565,-0.0016240794211626053,0.002724495716392994
1782891080520470000,9.537469970703125,0.0007250389899127185,-0.0027683028019964695,0.00012898421846330166
1782891080530492000,9.547491943359375,0.0014571419451385736,0.0012112585827708244,0.00004908943083137274
1782891080540514000,9.55751416015625,-0.0011096651433035731,0.0013121929951012135,-0.00003964942879974842
1782891080550536000,9.567535888671875,-0.0007123214891180396,-0.0004518846981227398,0.00011428119614720345
1782891080560558800,9.577558837890624,0.0014549060724675655,-0.00006538769230246544,-0.0007075658068060875
1782891080570581000,9.5875810546875,0.0017148306360468268,0.0010131923481822014,0.001269298605620861
1782891080580603000,9.597602783203126,0.0008259661262854934,-0.0008318726904690266,-0.0008766580140218139
1782891080590624800,9.607624755859375,0.0016763134626671672,0.00041368743404746056,-0.003108120523393154
1782891080600647000,9.61764697265625,-0.00101097475271672,0.0011386526748538017,0.00008389120921492577
1782891080610668800,9.627668701171874,-0.0006543773924931884,-0.0019327709451317787,-0.00017443543765693903
1782891080620691000,9.63769091796875,0.0001147495349869132,0.0022161854431033134,0.0005967991892248392
1782891080630713000,9.647713134765626,-0.000620815553702414,0.001252919901162386,-0.00009828584734350443
1782891080640735000,9.65773486328125,0.0013520307838916779,0.0007798564620316029,-0.002613852731883526
1782891080650756900,9.6677568359375,-0.00018860783893615007,0.0007252614013850689,-0.002275098580867052
1782891080660778800,9.67777880859375,-0.001157291466370225,0.0004950533621013165,-0.0011051292531192303
1782891080670801000,9.68780078125,-0.0009604839142411947,-0.00015529058873653412,-0.0011219072621315718
1782891080680823800,9.69782373046875,-0.002755278255790472,-0.0002141036093235016,0.0006397278048098087
1782891080690846000,9.707845947265625,-0.0026295767165720463,-0.0002905363216996193,0.0016157764475792646
1782891080700867800,9.717867919921876,0.0007271713111549616,-0.0006496752612292767,0.0010259464615955949
1782891080710889700,9.7278896484375,-0.001315473229624331,0.00010719522833824158,0.0029828371480107307
1782891080720912000,9.737911865234375,0.0010969499126076698,0.00005364418029785156,0.001374635612592101
1782891080730934000,9.74793408203125,-0.00010839675087481737,-0.0006281253881752491,-0.0003961001639254391
1782891080740956000,9.757955810546875,-0.001323883654549718,-0.00229781586676836,0.0005379902431741357
1782891080750978000,9.76797802734375,-0.0019830160308629274,-0.0009728935547173023,-0.0001435127342119813
1782891080761000000,9.778,0.0024818172678351402,-0.0006363219581544399,-0.00001379847526550293
1782891080771021800,9.788021728515625,-0.0015318329678848386,0.0021048695780336857,-0.001001298543997109
1782891080781043700,9.798043701171874,-0.0017195201944559813,0.0012389887124300003,-0.0006758170202374458
1782891080791065900,9.80806591796875,0.0008171407971531153,0.0010970421135425568,-0.00028220179956406355
1782891080801087700,9.818087646484376,0.00033534388057887554,0.0006369771435856819,0.00011803139932453632
1782891080811111000,9.82811083984375,0.0028906469233334064,0.0006782561540603638,-0.0003919638693332672
1782891080821132800,9.8381328125,0.0008008480654098094,0.0012035523541271687,-0.0008213220280595124
1782891080831155000,9.848155029296874,0.000034390250220894814,0.0018179435282945633,-0.002426142804324627
1782891080841177000,9.858177001953125,0.0008890175959095359,-0.0010553542524576187,-0.002451903186738491
1782891080851199000,9.868198974609374,-0.0010902438079938293,-0.0002638627775013447,0.0011007534340023994
1782891080861220900,9.878220947265625,0.00041436817264184356,0.001804326195269823,-0.0012025512987747788
1782891080871242800,9.88824267578125,0.0006260895170271397,0.000982474535703659,0.0021445094607770443
1782891080881265000,9.898264892578124,0.00028119038324803114,0.000182413961738348,-0.0007745404145680368
1782891080891286800,9.908286865234375,-0.000632806564681232,-0.000642367172986269,0.00003958784509450197
1782891080901308700,9.91830859375,-0.000282894354313612,-0.001938472967594862,0.0004900111816823483
1782891080911330800,9.928330810546875,0.0005402886890806258,0.00011109607294201851,-0.0005419636727310717
1782891080921353000,9.93835302734375,0.0007626548758707941,0.0010647978633642197,0.003191026858985424
1782891080931375900,9.9483759765625,0.00006810249760746956,-0.00026944559067487717,0.00189779547508806
1782891080941398000,9.95839794921875,0.0015186491655185819,0.002424502745270729,-0.0027496288530528545
1782891080951420000,9.968419921875,-0.0004491605795919895,-0.002554542850703001,-0.002618334721773863
1782891080961442000,9.978442138671875,-0.001997831277549267,-0.001324156764894724,-0.000477316090837121
1782891080971464000,9.9884638671875,0.002290923148393631,0.0004889233969151974,0.000983960460871458
1782891080981485800,9.99848583984375,-0.0005170038202777505,0.00220136484131217,0.002710622036829591
1782891080991507700,10.0085078125,-0.0023173007648438215,-0.0003627263940870762,-0.001061745686456561
1782891081001529900,10.01852978515625,0.0019805084448307753,0.0004852320998907089,-0.002557154279202223
1782891081011551700,10.0285517578125,0.0012771676992997527,0.0004420890472829342,0.00044076621998101473
1782891081021574000,10.038573974609376,0.0011674659326672554,0.0011477633379399776,0.003317795228213072
1782891081031596000,10.048595947265625,-0.00007090391591191292,-0.0007169819436967373,0.00021867442410439253
1782891081041618000,10.058617919921875,-0.0012052508536726236,-0.0004778006114065647,0.000680387718603015
1782891081051641000,10.06864111328125,0.0024691123981028795,0.0016335537657141685,0.00314141483977437
1782891081061663000,10.0786630859375,0.0003333663335070014,0.001283289398998022,-0.0005125931929796934
1782891081071684900,10.088684814453124,-0.0004844904178753495,0.0012055248953402042,0.0008243137272074819
1782891081081706800,10.098706787109375,-0.0007026942912489176,0.0010796720162034035,0.0017800393979996443
1782891081091729000,10.10872900390625,-0.001143980072811246,0.0035233888775110245,0.00030331662856042385
1782891081101750800,10.118750732421875,-0.00017902359832078218,-0.0002824272960424423,0.0012171382550150156
1782891081111772700,10.128772705078125,0.002879883162677288,-0.00045659812167286873,0.0008911672048270702
1782891081121794800,10.138794921875,-0.00010830420069396496,0.0015608323737978935,-0.0005935519584454596
1782891081131817000,10.14881689453125,-0.002348821610212326,-0.0005121724680066109,-0.0019909124821424484
1782891081141838300,10.15883837890625,0.00017104297876358032,0.0011997758410871029,-0.005478859879076481
1782891081151860200,10.168860107421875,-0.0012950270902365446,0.0035223187878727913,-0.0026356689631938934
1782891081161882400,10.17888232421875,0.001073950668796897,-0.0006271237507462502,0.00130080571398139
1782891081171904300,10.188904296875,0.0011016475036740303,-0.0003893035463988781,0.002236906671896577
1782891081181927200,10.19892724609375,-0.001052556443028152,-0.0026489952579140663,-0.0006700169760733843
1782891081191949300,10.20894921875,0.001458271755836904,0.00010764272883534431,0.0011878041550517082
1782891081201971200,10.21897119140625,-0.0009693610481917858,0.0003702179528772831,-0.00013439252506941557
1782891081211993300,10.228993408203126,0.0005611577071249485,-0.001413300633430481,-0.0005421224632300436
1782891081222015500,10.239015380859374,0.0013035769807174802,-0.0006318772211670876,0.0012017418630421162
1782891081232037400,10.249037353515625,0.0009049017680808902,-0.0006683622486889362,-0.001149563118815422
1782891081242059300,10.259059326171876,0.00017411087173968554,-0.000538097694516182,0.0002482765121385455
1782891081252081400,10.269081298828125,-0.001944966265000403,0.0011913590133190155,-0.0029595009982585907
1782891081262103300,10.279103271484376,0.001580676413141191,-0.0006013768725097179,0.0016996925696730614
1782891081272125200,10.289125244140624,0.0017303460044786334,0.002017841674387455,-0.0009629357955418527
1782891081282147300,10.299147216796875,-0.0008455904899165034,0.0013314620591700077,-0.00014433276373893023
1782891081292169200,10.309169189453126,0.00048758782213553786,0.001280329655855894,0.00009082432370632887
1782891081302192000,10.319192138671875,0.00014190655201673508,-0.0012176320888102055,-0.0003949236124753952
1782891081312214300,10.32921435546875,-0.0003515771823003888,0.00019171275198459625,-0.00180719792842865
1782891081322236400,10.339236328125,0.00023144716396927834,0.00003139255568385124,0.00046262575779110193
1782891081332258300,10.34925830078125,-0.001137683866545558,-0.00009910203516483307,-0.00135817751288414
1782891081342280400,10.359280517578124,-0.0009671015432104468,0.0006867763586342335,0.0005704406648874283
1782891081352302300,10.36930224609375,0.0011900588870048523,-0.002105548046529293,-0.00034036033321172
1782891081362324200,10.37932421875,0.000021271291188895702,-0.0004904288798570633,-0.0026283073239028454
1782891081372346400,10.389346435546875,0.0007262100116349757,-0.0007823114283382893,0.0011137002147734165
1782891081382368300,10.3993681640625,-0.000979614327661693,-0.0007349965162575245,-0.0005605710321106017
1782891081392390100,10.40939013671875,-0.0006685570115223527,-0.0003158147446811199,-0.0001842663623392582
1782891081402412300,10.419412353515625,0.0014121332205832005,-0.00035046041011810303,0.0010029800469055772
1782891081412434400,10.429434326171876,0.00022249913308769464,-0.0006878827698528767,-0.0008106327150017023
1782891081422456300,10.439456298828125,-0.0018624867079779506,-0.0014334246516227722,-0.000238339533098042
1782891081432479500,10.4494794921875,-0.0020523699931800365,0.001949855126440525,-0.0018703246023505926
1782891081442501400,10.45950146484375,0.0005419402732513845,0.00012547196820378304,0.0019096701871603727
1782891081452523300,10.469523193359375,0.0013235780643299222,-0.00020422739908099174,-0.0008293910068459809
1782891081462545400,10.47954541015625,-0.0011195396073162556,0.0000170217826962471,-0.0004726443439722061
1782891081472567300,10.4895673828125,-0.0019602994434535503,0.0007595107890665531,-0.005039433017373085
1782891081482589200,10.499589111328126,-0.0006406982429325581,0.0009346404112875462,-0.003074662759900093
1782891081492611300,10.509611328125,-0.00045294524170458317,0.0008456907235085964,-0.001459455699659884
1782891081502633200,10.51963330078125,0.001100396504625678,0.0024036765098571777,-0.00035765720531344414
1782891081512655400,10.5296552734375,0.0016910855192691088,0.002044416032731533,0.0014093501958996058
1782891081522677200,10.53967724609375,0.00025377317797392607,-0.0002960651181638241,0.0010803058976307511
1782891081532699400,10.549699462890626,0.0013587187277153134,0.00003603100776672363,-0.0024648942053318024
1782891081542721300,10.55972119140625,-0.0022561263758689165,-0.0004896456375718117,-0.001297978451475501
1782891081552744400,10.569744384765626,-0.000921349972486496,-0.00039270659908652306,-0.002086540451273322
1782891081562766300,10.579766357421875,-0.0013883610954508185,0.0011154296807944775,-0.0023352643474936485
1782891081572788200,10.589788330078125,0.001591183478012681,-0.0004023057408630848,-0.0002065995940938592
1782891081582810400,10.599810302734374,-0.0001117287902161479,0.000543543603271246,-0.0004987027496099472
1782891081592832300,10.609832275390625,-0.0011482312111184,-0.0005779135972261429,0.0002203508047387004
1782891081602854100,10.619854248046876,0.0006829042104072869,-0.0014325249940156937,0.001061472692526877
1782891081612876300,10.629876220703125,0.0009414971573278308,0.0005928091704845428,0.0003213802119717002
1782891081622898400,10.6398984375,0.00031129701528698206,0.0004032463766634464,0.002403819002211094
1782891081632920300,10.64992041015625,0.000953917799051851,-0.0004684063605964184,-0.0014156864490360022
1782891081642942200,10.659942138671875,0.001429733936674893,0.0004521813243627548,-0.00032821635250002146
1782891081652964400,10.66996435546875,-0.0003705628914758563,0.00023060664534568787,-0.001733832759782672
1782891081662986200,10.679986328125,-0.0002640456659719348,-0.0012754574418067932,-0.0014103098073974252
1782891081673009400,10.690009521484376,-0.002010280266404152,-0.0013718637637794018,-0.0038295253179967403
1782891081683031300,10.70003125,-0.0008690423564985394,0.001013880129903555,0.0007824385538697243
1782891081693053200,10.71005322265625,-0.0005292228888720274,0.0008215997368097305,-0.0008546064491383731
1782891081703075300,10.720075439453124,-0.001195527845993638,-0.0016574286855757236,-0.0014048172160983086
1782891081713097200,10.73009716796875,-0.002638162113726139,0.0007583247497677803,0.0006713831098750234
1782891081723119400,10.740119384765626,-0.00017573090735822916,0.04546016454696655,0.027097327634692192
1782891081733141200,10.750141357421874,0.0018645167583599687,0.04371020197868347,0.03117888979613781
1782891081743163400,10.760163330078125,-0.000008921022526919842,0.06876842677593231,0.03129002824425697
1782891081753185300,10.770185302734374,-0.0025008409284055233,0.0439821220934391,0.02532001957297325
1782891081763207200,10.780207275390625,0.00019105698447674513,0.018486078828573227,0.008433450013399124
1782891081773229300,10.790229248046876,0.0008786851540207863,-0.014249229803681374,-0.003886333666741848
1782891081783251200,10.800251220703124,-0.0006137031596153975,-0.03528479114174843,-0.011438721790909767
1782891081793273000,10.810273193359375,-0.00013220356777310371,-0.04677979275584221,-0.016898201778531075
1782891081803296300,10.820296142578124,-0.00011373846791684628,-0.04165044054389,-0.02437916398048401
1782891081813318100,10.830318115234375,-0.000719341216608882,-0.03653876855969429,-0.02667241171002388
1782891081823340300,10.84034033203125,0.0012448281049728394,-0.03815849870443344,-0.028185265138745308
1782891081833362400,10.850362548828125,0.0025447169318795204,-0.005851157940924168,0.002315118443220854
1782891081843384300,10.86038427734375,0.0006830107886344194,0.010696281678974628,0.003758074017241597
1782891081853406200,10.87040625,-0.0016440593171864748,0.0174761563539505,0.003919195383787155
