time,seconds_elapsed,z,y,x
1782891270428220000,0.057219970703125,-1.15093994140625,0.050018310546875,-0.1677703857421875
1782891270438241800,0.06724169921875,-1.082733154296875,0.112640380859375,-0.1148529052734375
1782891270448263700,0.077263671875,-1.1258544921875,-0.0648956298828125,-0.0909271240234375
1782891270458285600,0.08728564453125,-1.074432373046875,-0.0883636474609375,-0.1527862548828125
1782891270468307700,0.0973076171875,-0.947845458984375,-0.0798187255859375,-0.3347930908203125
1782891270478329600,0.10732958984375,-0.7816925048828125,-0.1195831298828125,-0.5275421142578125
1782891270488351500,0.1173515625,-0.6148529052734375,-0.182769775390625,-0.6618804931640625
1782891270498373600,0.12737353515625,-0.48419189453125,-0.2320709228515625,-0.66693115234375
1782891270508395800,0.137395751953125,-0.42755126953125,-0.2146148681640625,-0.5714874267578125
1782891270518417700,0.147417724609375,-0.4256134033203125,-0.1356964111328125,-0.4758453369140625
1782891270528439800,0.157439697265625,-0.445526123046875,-0.0581512451171875,-0.41064453125
1782891270538461700,0.167461669921875,-0.5045928955078125,-0.0012054443359375,-0.32745361328125
1782891270548483600,0.177483642578125,-0.548828125,0.0353546142578125,-0.1915740966796875
1782891270558505700,0.187505615234375,-0.5113677978515625,-0.0249176025390625,0.334228515625
1782891270568527600,0.197527587890625,-0.579345703125,-0.0495147705078125,0.5880889892578125
1782891270578549500,0.207549560546875,-0.5021820068359375,-0.1648712158203125,0.721954345703125
1782891270588572000,0.217572021484375,-0.40020751953125,0.0703582763671875,0.283233642578125
1782891270598593800,0.22759375,-0.3468170166015625,0.27410888671875,-0.1256561279296875
1782891270608615700,0.23761572265625,-0.4065093994140625,0.15570068359375,-0.06964111328125
1782891270618637800,0.247637939453125,-0.4525146484375,0.04052734375,-0.207275390625
1782891270628659700,0.25765966796875,-0.5091552734375,-0.035400390625,-0.364166259765625
1782891270638681600,0.267681640625,-0.540557861328125,-0.0156097412109375,-0.44036865234375
1782891270648703500,0.277703369140625,-0.5164337158203125,0.066436767578125,-0.427520751953125
1782891270658725600,0.2877255859375,-0.5202789306640625,0.1052398681640625,-0.3849029541015625
1782891270668747800,0.297747802734375,-0.53411865234375,0.138916015625,-0.354888916015625
1782891270678769700,0.307769775390625,-0.468841552734375,0.159912109375,-0.3329315185546875
1782891270688791800,0.317791748046875,-0.4304962158203125,0.1781463623046875,-0.322235107421875
1782891270698813700,0.327813720703125,-0.452362060546875,0.2051239013671875,-0.3216400146484375
1782891270708835600,0.337835693359375,-0.4754180908203125,0.2330322265625,-0.3394775390625
1782891270718857700,0.347857666015625,-0.5073699951171875,0.2618560791015625,-0.373809814453125
1782891270728879600,0.357879638671875,-0.558624267578125,0.283294677734375,-0.4516448974609375
1782891270738901500,0.367901611328125,-0.657928466796875,0.3031005859375,-0.5273590087890625
1782891270748924000,0.377923828125,-0.7659149169921875,0.3569183349609375,-0.5883636474609375
1782891270758945800,0.38794580078125,-0.8661956787109375,0.444915771484375,-0.664764404296875
1782891270768967700,0.3979677734375,-0.95599365234375,0.520416259765625,-0.7989501953125
1782891270778989800,0.40798974609375,-1.0092010498046875,0.5820465087890625,-0.9429473876953125
1782891270789011700,0.41801171875,-1.029327392578125,0.6576080322265625,-1.055572509765625
1782891270799033600,0.42803369140625,-1.048095703125,0.72601318359375,-1.1490325927734375
1782891270809055500,0.438055419921875,-1.130126953125,0.7993316650390625,-1.2212066650390625
1782891270819077600,0.44807763671875,-1.2700347900390625,0.89324951171875,-1.2666473388671875
1782891270829099800,0.458099853515625,-1.40863037109375,0.995819091796875,-1.3064117431640625
1782891270839121700,0.46812158203125,-1.5541839599609375,1.0544586181640625,-1.4014892578125
1782891270849143800,0.478143798828125,-1.6685333251953125,1.078887939453125,-1.510040283203125
1782891270859165700,0.488165771484375,-1.750732421875,1.0749053955078125,-1.584136962890625
1782891270869187600,0.4981875,-1.7486419677734375,1.046600341796875,-1.5686492919921875
1782891270879209700,0.508209716796875,-1.61663818359375,1.005950927734375,-1.469329833984375
1782891270889231600,0.518231689453125,-1.435272216796875,0.9574127197265625,-1.34808349609375
1782891270899253500,0.52825341796875,-1.2548980712890625,0.894622802734375,-1.220245361328125
1782891270909275600,0.538275634765625,-1.1097412109375,0.819183349609375,-1.124542236328125
1782891270919297800,0.5482978515625,-0.994110107421875,0.7463531494140625,-1.037445068359375
1782891270929319700,0.558319580078125,-0.91607666015625,0.685455322265625,-0.94091796875
1782891270939341800,0.568341796875,-0.876251220703125,0.6333465576171875,-0.8598480224609375
1782891270949363700,0.57836376953125,-0.86175537109375,0.58441162109375,-0.7689056396484375
1782891270959386600,0.58838671875,-0.85821533203125,0.5218353271484375,-0.6722259521484375
1782891270969408800,0.59840869140625,-0.850555419921875,0.441253662109375,-0.5938873291015625
1782891270979430700,0.6084306640625,-0.825836181640625,0.3591156005859375,-0.5109405517578125
1782891270989452500,0.61845263671875,-0.8043670654296875,0.2743682861328125,-0.417449951171875
1782891270999474700,0.628474609375,-0.7876434326171875,0.1864166259765625,-0.3220672607421875
1782891271009496600,0.63849658203125,-0.7619781494140625,0.0824127197265625,-0.238525390625
1782891271019518700,0.648518798828125,-0.7158966064453125,-0.030609130859375,-0.16143798828125
1782891271029540900,0.658540771484375,-0.641937255859375,-0.13836669921875,-0.0942535400390625
1782891271039562800,0.668562744140625,-0.5743255615234375,-0.22613525390625,-0.0511627197265625
1782891271049584600,0.678584716796875,-0.5020599365234375,-0.2776336669921875,-0.0368804931640625
1782891271059606800,0.688606689453125,-0.3897857666015625,-0.2938690185546875,-0.0242919921875
1782891271069628700,0.698628662109375,-0.25506591796875,-0.2791290283203125,0.0174560546875
1782891271079650600,0.708650634765625,-0.0919647216796875,-0.2462005615234375,0.054718017578125
1782891271089672700,0.718672607421875,0.107940673828125,-0.193267822265625,0.099029541015625
1782891271099694800,0.72869482421875,0.2993316650390625,-0.1642913818359375,0.129180908203125
1782891271109716700,0.738716796875,0.4043121337890625,-0.169403076171875,0.164276123046875
1782891271119738600,0.748738525390625,0.4540863037109375,-0.1521148681640625,0.1734161376953125
1782891271129760800,0.7587607421875,0.4751739501953125,-0.1149444580078125,0.1605224609375
1782891271139782700,0.76878271484375,0.41790771484375,-0.0839080810546875,0.125244140625
1782891271149804500,0.778804443359375,0.33892822265625,-0.0238800048828125,0.04656982421875
1782891271159826700,0.78882666015625,0.28753662109375,0.0817718505859375,-0.0488128662109375
1782891271169848600,0.7988486328125,0.25335693359375,0.21673583984375,-0.1397247314453125
1782891271179870700,0.80887060546875,0.2144927978515625,0.367034912109375,-0.224853515625
1782891271189892900,0.818892822265625,0.16778564453125,0.559112548828125,-0.354766845703125
1782891271199914800,0.828914794921875,0.0547027587890625,0.726959228515625,-0.4981842041015625
1782891271209936600,0.8389365234375,-0.12750244140625,0.9684906005859375,-0.747589111328125
1782891271219958800,0.848958740234375,-0.3842010498046875,1.191802978515625,-0.9493560791015625
1782891271229980700,0.858980712890625,-0.6626434326171875,1.33270263671875,-1.067108154296875
1782891271240002600,0.86900244140625,-0.8161468505859375,1.4901580810546875,-1.213775634765625
1782891271250024700,0.879024658203125,-0.865814208984375,1.6171875,-1.3806915283203125
1782891271260046800,0.889046875,-0.896514892578125,1.690032958984375,-1.622955322265625
1782891271270068700,0.89906884765625,-0.9208526611328125,1.691162109375,-1.8365325927734375
1782891271280090600,0.909090576171875,-0.933929443359375,1.6845703125,-1.94781494140625
1782891271290112800,0.91911279296875,-0.9739837646484375,1.6822509765625,-2.0052947998046875
1782891271300134700,0.929134765625,-1.0487213134765625,1.680389404296875,-2.06317138671875
1782891271310156500,0.939156494140625,-1.1740570068359375,1.6228790283203125,-2.062835693359375
1782891271320178700,0.9491787109375,-1.30792236328125,1.554229736328125,-2.05780029296875
1782891271330200600,0.95920068359375,-1.4204559326171875,1.486968994140625,-2.0158538818359375
1782891271340222700,0.96922265625,-1.449920654296875,1.4397125244140625,-1.9257659912109375
1782891271350244900,0.979244873046875,-1.3820953369140625,1.3871612548828125,-1.777435302734375
1782891271360266800,0.989266845703125,-1.2333221435546875,1.3028564453125,-1.587646484375
1782891271370288600,0.99928857421875,-1.0399017333984375,1.1873626708984375,-1.39923095703125
1782891271380310500,1.009310546875,-0.8081817626953125,1.044036865234375,-1.2576751708984375
1782891271390332700,1.019332763671875,-0.59295654296875,0.90631103515625,-1.1447296142578125
1782891271400354600,1.0293544921875,-0.440704345703125,0.7902069091796875,-1.028839111328125
1782891271410376400,1.03937646484375,-0.32684326171875,0.73345947265625,-0.961212158203125
1782891271420398600,1.049398681640625,-0.2847900390625,0.6370849609375,-0.831451416015625
1782891271430420700,1.059420654296875,-0.2416839599609375,0.5249481201171875,-0.6864013671875
1782891271440442600,1.069442626953125,-0.1402130126953125,0.4138031005859375,-0.551177978515625
1782891271450464800,1.07946484375,-0.0701446533203125,0.25604248046875,-0.4010009765625
1782891271460486700,1.089486572265625,-0.030120849609375,0.123504638671875,-0.2729339599609375
1782891271470508500,1.099508544921875,-0.028717041015625,0.0087738037109375,-0.1410675048828125
1782891271480530700,1.10953076171875,-0.021453857421875,-0.095489501953125,0.0092620849609375
1782891271490552600,1.119552490234375,0.0540313720703125,-0.1785430908203125,0.1611785888671875
1782891271500574500,1.129574462890625,0.1544189453125,-0.239776611328125,0.2498779296875
1782891271510596900,1.139596923828125,0.259552001953125,-0.2482452392578125,0.23919677734375
1782891271520618800,1.14961865234375,0.3466644287109375,-0.20977783203125,0.209197998046875
1782891271530640600,1.159640625,0.3889923095703125,-0.169036865234375,0.1778717041015625
1782891271540662500,1.16966259765625,0.4001617431640625,-0.1409149169921875,0.1128082275390625
1782891271550684700,1.1796845703125,0.394561767578125,-0.1230010986328125,0.0540008544921875
1782891271560706600,1.18970654296875,0.3898162841796875,-0.0807952880859375,0.005584716796875
1782891271570728400,1.199728515625,0.3153839111328125,-0.070953369140625,-0.02593994140625
1782891271580750600,1.20975048828125,0.1722564697265625,-0.0569305419921875,-0.0990447998046875
1782891271590772700,1.219772705078125,0.0256805419921875,-0.0389251708984375,-0.1660003662109375
1782891271600794600,1.229794677734375,-0.0882415771484375,-0.0214691162109375,-0.200439453125
1782891271610816800,1.239816650390625,-0.1469268798828125,0.015167236328125,-0.2312774658203125
1782891271620838700,1.249838623046875,-0.18145751953125,0.0925445556640625,-0.260345458984375
1782891271630860500,1.259860595703125,-0.1868438720703125,0.2238616943359375,-0.292816162109375
1782891271640882700,1.269882568359375,-0.193450927734375,0.361572265625,-0.351318359375
1782891271650904600,1.279904541015625,-0.2530059814453125,0.4610137939453125,-0.4288482666015625
1782891271660926500,1.289926513671875,-0.2855377197265625,0.5991973876953125,-0.5830535888671875
1782891271670948900,1.299948974609375,-0.3443756103515625,0.7489166259765625,-0.7509307861328125
1782891271680970800,1.309970703125,-0.44464111328125,0.9188995361328125,-0.92559814453125
1782891271690992600,1.31999267578125,-0.577911376953125,1.0745086669921875,-1.1213226318359375
1782891271701014800,1.330014892578125,-0.7516021728515625,1.1604461669921875,-1.231842041015625
1782891271711036700,1.34003662109375,-0.8855438232421875,1.2801971435546875,-1.3046417236328125
1782891271721058600,1.35005859375,-0.9646453857421875,1.4371337890625,-1.3755340576171875
1782891271731081700,1.360081787109375,-1.0586700439453125,1.53155517578125,-1.3854522705078125
1782891271741102600,1.3701025390625,-1.1154937744140625,1.537689208984375,-1.374114990234375
1782891271751125500,1.38012548828125,-1.1188201904296875,1.529693603515625,-1.3820648193359375
1782891271761147600,1.390147705078125,-1.091461181640625,1.5468597412109375,-1.4110260009765625
1782891271771169500,1.40016943359375,-1.0943603515625,1.5419464111328125,-1.4593505859375
1782891271781191700,1.410191650390625,-1.1767120361328125,1.4864501953125,-1.4971160888671875
1782891271791213800,1.4202138671875,-1.3232574462890625,1.4143829345703125,-1.503814697265625
1782891271801235700,1.430235595703125,-1.4874420166015625,1.3319549560546875,-1.450897216796875
1782891271811257600,1.440257568359375,-1.562042236328125,1.21466064453125,-1.3594970703125
1782891271821279500,1.450279541015625,-1.548675537109375,1.062957763671875,-1.2725372314453125
1782891271831301600,1.460301513671875,-1.4539337158203125,0.9137115478515625,-1.1961669921875
1782891271841323500,1.470323486328125,-1.2885284423828125,0.803741455078125,-1.1079559326171875
1782891271851345700,1.480345703125,-1.0959014892578125,0.70538330078125,-1.0339202880859375
1782891271861367800,1.490367919921875,-0.904144287109375,0.6163482666015625,-0.962799072265625
1782891271871389700,1.5003896484375,-0.7398834228515625,0.5183563232421875,-0.856292724609375
1782891271881411600,1.51041162109375,-0.61285400390625,0.4084320068359375,-0.7332916259765625
1782891271891433700,1.520433837890625,-0.5207977294921875,0.3020172119140625,-0.5952911376953125
1782891271901455600,1.53045556640625,-0.4602203369140625,0.18963623046875,-0.458984375
1782891271911477500,1.5404775390625,-0.4292449951171875,0.0842742919921875,-0.3438720703125
1782891271921499600,1.550499755859375,-0.42718505859375,-0.01519775390625,-0.2341156005859375
1782891271931521500,1.560521484375,-0.399749755859375,-0.1023101806640625,-0.12939453125
1782891271941543700,1.570543701171875,-0.3215179443359375,-0.180938720703125,-0.030242919921875
1782891271951565800,1.58056591796875,-0.232666015625,-0.2253570556640625,0.0349273681640625
1782891271961587700,1.590587646484375,-0.10723876953125,-0.20428466796875,0.06121826171875
1782891271971609600,1.600609619140625,0.0729827880859375,-0.157073974609375,0.0941314697265625
1782891271981631700,1.6106318359375,0.3007659912109375,-0.1358184814453125,0.1259765625
1782891271991653600,1.620653564453125,0.514190673828125,-0.1327972412109375,0.138671875
1782891272001675500,1.630675537109375,0.6531524658203125,-0.1318206787109375,0.1527862548828125
1782891272011697400,1.640697509765625,0.6483001708984375,-0.1338043212890625,0.1381378173828125
1782891272021719800,1.6507197265625,0.53155517578125,-0.1059722900390625,0.04833984375
1782891272031741700,1.66074169921875,0.3256378173828125,-0.0990142822265625,-0.03271484375
1782891272041763600,1.670763671875,0.1134033203125,-0.08026123046875,-0.1305999755859375
1782891272051785700,1.68078564453125,-0.089111328125,-0.074554443359375,-0.21697998046875
1782891272061807600,1.6908076171875,-0.27056884765625,-0.0661163330078125,-0.27581787109375
1782891272071829500,1.70082958984375,-0.382659912109375,-0.03265380859375,-0.3135833740234375
1782891272081851600,1.7108515625,-0.404266357421875,0.0217742919921875,-0.339630126953125
1782891272091873500,1.72087353515625,-0.3785552978515625,0.100006103515625,-0.3897247314453125
1782891272101895700,1.730895751953125,-0.358917236328125,0.1891937255859375,-0.469512939453125
1782891272111917800,1.740917724609375,-0.4262542724609375,0.2603759765625,-0.5622711181640625
1782891272121939700,1.750939697265625,-0.5618438720703125,0.3275299072265625,-0.6609344482421875
1782891272131961600,1.760961669921875,-0.7329864501953125,0.4642791748046875,-0.77508544921875
1782891272141983700,1.770983642578125,-0.91705322265625,0.656219482421875,-0.9007568359375
1782891272152005600,1.781005615234375,-1.1241912841796875,0.810333251953125,-0.9786529541015625
1782891272162027500,1.791027587890625,-1.3379058837890625,0.89404296875,-0.9845733642578125
1782891272172049700,1.801049560546875,-1.4560546875,0.9734954833984375,-0.997711181640625
1782891272182071800,1.81107177734375,-1.4785919189453125,1.0305633544921875,-1.0247802734375
1782891272192093700,1.82109375,-1.457366943359375,1.0196533203125,-1.06939697265625
1782891272202115600,1.831115478515625,-1.4444580078125,0.9796295166015625,-1.0876007080078125
1782891272212137700,1.8411376953125,-1.4642333984375,0.9590911865234375,-1.0800018310546875
1782891272222159600,1.85115966796875,-1.5095977783203125,0.9647064208984375,-1.0865631103515625
1782891272232181500,1.861181396484375,-1.5420684814453125,0.9816436767578125,-1.0670166015625
1782891272242203600,1.87120361328125,-1.57183837890625,1.0068206787109375,-1.0500030517578125
1782891272252225500,1.8812255859375,-1.614013671875,1.02197265625,-1.0352783203125
1782891272262247700,1.89124755859375,-1.6651153564453125,1.027069091796875,-1.0222320556640625
1782891272272269800,1.901269775390625,-1.7047576904296875,1.0012359619140625,-0.9994049072265625
1782891272282291700,1.911291748046875,-1.7152557373046875,0.938201904296875,-0.9780731201171875
1782891272292313600,1.921313720703125,-1.67889404296875,0.8566131591796875,-0.966400146484375
1782891272302335700,1.931335693359375,-1.5868988037109375,0.77215576171875,-0.9332733154296875
1782891272312357600,1.941357666015625,-1.4525909423828125,0.6951141357421875,-0.85833740234375
1782891272322379300,1.951379150390625,-1.2764129638671875,0.636260986328125,-0.761810302734375
1782891272332401400,1.9614013671875,-1.103240966796875,0.572998046875,-0.6744842529296875
1782891272342423600,1.971423583984375,-0.94873046875,0.4946441650390625,-0.6034698486328125
1782891272352445400,1.981445556640625,-0.8176422119140625,0.391265869140625,-0.53192138671875
1782891272362467600,1.991467529296875,-0.739013671875,0.29638671875,-0.452606201171875
1782891272372489500,2.001489501953125,-0.6687164306640625,0.2170867919921875,-0.3629608154296875
1782891272382511400,2.011511474609375,-0.5792999267578125,0.1383056640625,-0.274261474609375
1782891272392533500,2.021533447265625,-0.488067626953125,0.0474700927734375,-0.1973876953125
1782891272402555400,2.031555419921875,-0.3799591064453125,-0.0402984619140625,-0.121307373046875
1782891272412577300,2.041577392578125,-0.2703857421875,-0.104522705078125,-0.06005859375
1782891272422599700,2.051599609375,-0.192291259765625,-0.1431427001953125,-0.011383056640625
1782891272432621600,2.06162158203125,-0.122100830078125,-0.1461181640625,0.0505523681640625
1782891272442643500,2.0716435546875,-0.0386962890625,-0.1279144287109375,0.083404541015625
1782891272452665300,2.081665283203125,0.0616455078125,-0.1136474609375,0.0883941650390625
1782891272462687500,2.0916875,0.14691162109375,-0.1031341552734375,0.07708740234375
1782891272472709400,2.10170947265625,0.201507568359375,-0.092193603515625,0.0390625
1782891272482731300,2.111731201171875,0.2439727783203125,-0.08294677734375,0.0177001953125
1782891272492753400,2.12175341796875,0.2685699462890625,-0.076416015625,0.018707275390625
1782891272502775600,2.131775634765625,0.245697021484375,-0.0699920654296875,-0.007965087890625
1782891272512797400,2.14179736328125,0.175537109375,-0.076263427734375,-0.059722900390625
1782891272522819600,2.151819580078125,0.067626953125,-0.086669921875,-0.1236724853515625
1782891272532841500,2.161841552734375,-0.0234222412109375,-0.098541259765625,-0.165374755859375
1782891272542863400,2.17186328125,-0.12322998046875,-0.0975494384765625,-0.1997528076171875
1782891272552885500,2.181885498046875,-0.225830078125,-0.0714874267578125,-0.2310028076171875
1782891272562907400,2.191907470703125,-0.31939697265625,-0.024383544921875,-0.2610931396484375
1782891272572929300,2.20192919921875,-0.3989715576171875,0.04852294921875,-0.30206298828125
1782891272582951400,2.211951416015625,-0.465606689453125,0.1276092529296875,-0.3495025634765625
1782891272592973600,2.2219736328125,-0.5296173095703125,0.1841583251953125,-0.3894500732421875
1782891272602995500,2.231995361328125,-0.605133056640625,0.236663818359375,-0.4452667236328125
1782891272613017300,2.242017333984375,-0.7017669677734375,0.3105010986328125,-0.548248291015625
1782891272623039500,2.25203955078125,-0.8348846435546875,0.415374755859375,-0.6367950439453125
1782891272633061400,2.262061279296875,-1.0084228515625,0.521759033203125,-0.68499755859375
1782891272643083300,2.272083251953125,-1.1942901611328125,0.6031951904296875,-0.73272705078125
1782891272653105400,2.28210546875,-1.362396240234375,0.6941070556640625,-0.7772369384765625
1782891272663127300,2.292127197265625,-1.4690704345703125,0.783172607421875,-0.8249359130859375
1782891272673149400,2.3021494140625,-1.55841064453125,0.810089111328125,-0.8788604736328125
1782891272683171600,2.312171630859375,-1.6651763916015625,0.794464111328125,-0.95196533203125
1782891272693193500,2.322193359375,-1.766815185546875,0.7888336181640625,-1.0111541748046875
1782891272703215400,2.33221533203125,-1.82830810546875,0.7974700927734375,-1.0493316650390625
1782891272713237500,2.342237548828125,-1.8324127197265625,0.8116302490234375,-1.0885162353515625
1782891272723259400,2.35225927734375,-1.795623779296875,0.8268585205078125,-1.103363037109375
1782891272733281300,2.36228125,-1.7720489501953125,0.8380279541015625,-1.100738525390625
1782891272743303400,2.372303466796875,-1.8060302734375,0.8342437744140625,-1.08203125
1782891272753325600,2.38232568359375,-1.8239288330078125,0.83154296875,-1.035675048828125
1782891272763348200,2.39234814453125,-1.782379150390625,0.8166046142578125,-0.97064208984375
1782891272773369600,2.40236962890625,-1.6670684814453125,0.7805328369140625,-0.890594482421875
1782891272783392500,2.412392578125,-1.531402587890625,0.7347564697265625,-0.80908203125
1782891272793414400,2.422414306640625,-1.4043426513671875,0.6766357421875,-0.72979736328125
1782891272803436500,2.4324365234375,-1.278076171875,0.5923614501953125,-0.6571807861328125
1782891272813458400,2.44245849609375,-1.146881103515625,0.4891815185546875,-0.5965728759765625
1782891272823480300,2.452480224609375,-1.0366058349609375,0.374481201171875,-0.538970947265625
1782891272833502500,2.46250244140625,-0.953460693359375,0.271392822265625,-0.4651947021484375
1782891272843524400,2.4725244140625,-0.8841552734375,0.1784210205078125,-0.36187744140625
1782891272853546500,2.48254638671875,-0.8226165771484375,0.08740234375,-0.2455902099609375
1782891272863568600,2.492568603515625,-0.7667236328125,-0.0070037841796875,-0.143829345703125
1782891272873590500,2.502590576171875,-0.68988037109375,-0.084930419921875,-0.0690460205078125
1782891272883612400,2.5126123046875,-0.5831756591796875,-0.1350250244140625,-0.0294036865234375
1782891272893634300,2.52263427734375,-0.4448699951171875,-0.1602630615234375,-0.0030364990234375
1782891272903656400,2.532656494140625,-0.289306640625,-0.16015625,0.01141357421875
1782891272913678300,2.54267822265625,-0.1412353515625,-0.13946533203125,0.015289306640625
1782891272923700200,2.5527001953125,-0.0205078125,-0.107177734375,0.01226806640625
1782891272933722600,2.56272265625,0.056365966796875,-0.088623046875,-0.0129241943359375
1782891272943744500,2.57274462890625,0.1016998291015625,-0.0942840576171875,-0.0358734130859375
1782891272953766400,2.582766357421875,0.078460693359375,-0.127105712890625,-0.030792236328125
1782891272963788500,2.59278857421875,0.090728759765625,-0.0674285888671875,-0.146270751953125
1782891272973810400,2.602810546875,0.106048583984375,-0.063934326171875,-0.1650543212890625
1782891272983832300,2.612832275390625,0.0186614990234375,-0.1185455322265625,-0.127716064453125
1782891272993854500,2.6228544921875,-0.092987060546875,-0.09088134765625,-0.1566009521484375
1782891273003876400,2.63287646484375,-0.256744384765625,-0.0733184814453125,-0.1515655517578125
1782891273013898500,2.6428984375,-0.410430908203125,-0.059844970703125,-0.1388397216796875
1782891273023920600,2.652920654296875,-0.4821624755859375,-0.0265960693359375,-0.12799072265625
1782891273033942500,2.662942626953125,-0.4857635498046875,0.0174713134765625,-0.1136474609375
1782891273043964400,2.67296435546875,-0.49749755859375,0.03668212890625,-0.0923919677734375
1782891273053986600,2.682986572265625,-0.5544586181640625,0.0792694091796875,-0.1194610595703125
1782891273064008400,2.693008544921875,-0.50634765625,0.1994171142578125,-0.2832794189453125
1782891273074030300,2.7030302734375,-0.5492706298828125,0.2302093505859375,-0.328125
1782891273084052200,2.71305224609375,-0.737579345703125,0.226165771484375,-0.2868499755859375
1782891273094074400,2.723074462890625,-0.90924072265625,0.287933349609375,-0.362091064453125
1782891273104096500,2.733096435546875,-1.079803466796875,0.33038330078125,-0.418701171875
1782891273114118400,2.743118408203125,-1.2210693359375,0.3726348876953125,-0.48577880859375
1782891273124140500,2.753140625,-1.32586669921875,0.419281005859375,-0.5515899658203125
1782891273134162400,2.763162353515625,-1.4068756103515625,0.4656524658203125,-0.611175537109375
1782891273144184300,2.773184326171875,-1.473480224609375,0.5139007568359375,-0.686004638671875
1782891273154206500,2.78320654296875,-1.5556640625,0.5276947021484375,-0.7354888916015625
1782891273164228400,2.793228271484375,-1.62103271484375,0.5330047607421875,-0.7464599609375
1782891273174250200,2.803250244140625,-1.6955413818359375,0.5346832275390625,-0.745025634765625
1782891273184272600,2.813272705078125,-1.8015594482421875,0.5260467529296875,-0.774871826171875
1782891273194294500,2.82329443359375,-1.88818359375,0.517669677734375,-0.80633544921875
1782891273204316400,2.83331640625,-1.9046630859375,0.527740478515625,-0.8124237060546875
1782891273214338600,2.843338623046875,-1.86737060546875,0.5455474853515625,-0.779510498046875
1782891273224360400,2.8533603515625,-1.8178863525390625,0.5594329833984375,-0.704376220703125
1782891273234382300,2.86338232421875,-1.751312255859375,0.5633087158203125,-0.632537841796875
1782891273244404500,2.873404541015625,-1.68707275390625,0.5457916259765625,-0.587921142578125
1782891273254426400,2.88342626953125,-1.6185760498046875,0.502197265625,-0.5718994140625
1782891273264448500,2.893448486328125,-1.527099609375,0.4364776611328125,-0.558197021484375
1782891273274470400,2.903470458984375,-1.432952880859375,0.3921661376953125,-0.5456085205078125
1782891273284492500,2.913492431640625,-1.3232574462890625,0.357696533203125,-0.5130157470703125
1782891273294514400,2.923514404296875,-1.1942138671875,0.3085479736328125,-0.4807891845703125
1782891273304536300,2.933536376953125,-1.0701904296875,0.248687744140625,-0.456634521484375
1782891273314558500,2.943558349609375,-0.95086669921875,0.1867523193359375,-0.4253082275390625
1782891273324580000,2.953580078125,-0.8963470458984375,0.1160430908203125,-0.372222900390625
1782891273334602200,2.963602294921875,-0.9092559814453125,0.08099365234375,-0.2952728271484375
1782891273344624400,2.973624267578125,-0.9048614501953125,0.059234619140625,-0.2093505859375
1782891273354646300,2.983646240234375,-0.8601837158203125,0.0269622802734375,-0.1353607177734375
1782891273364668200,2.993668212890625,-0.748199462890625,-0.02020263671875,-0.0738525390625
1782891273374690300,3.003690185546875,-0.60906982421875,-0.073150634765625,-0.0434722900390625
1782891273384712200,3.013712158203125,-0.46490478515625,-0.1151275634765625,-0.0411376953125
1782891273394734000,3.023734130859375,-0.2994232177734375,-0.136260986328125,-0.05670166015625
1782891273404756000,3.033755859375,-0.139495849609375,-0.1403350830078125,-0.0880889892578125
1782891273414778000,3.043778076171875,-0.0267486572265625,-0.1323699951171875,-0.116302490234375
1782891273424800300,3.05380029296875,0.0424346923828125,-0.1109466552734375,-0.1196136474609375
1782891273434822100,3.063822265625,0.110504150390625,-0.080596923828125,-0.1099395751953125
1782891273444844300,3.07384423828125,0.1671295166015625,-0.0598602294921875,-0.085418701171875
1782891273454866200,3.0838662109375,0.1865692138671875,-0.0536346435546875,-0.0726318359375
1782891273464888000,3.09388818359375,0.1646575927734375,-0.062255859375,-0.07598876953125
1782891273474910200,3.10391015625,0.1213836669921875,-0.08087158203125,-0.079437255859375
1782891273484932000,3.11393212890625,0.0771636962890625,-0.094085693359375,-0.1183624267578125
1782891273494954000,3.1239541015625,0.012359619140625,-0.1173858642578125,-0.1091766357421875
1782891273504976400,3.133976318359375,-0.080902099609375,-0.1363067626953125,-0.1160430908203125
1782891273514998300,3.143998291015625,-0.181182861328125,-0.126708984375,-0.1451873779296875
1782891273525020200,3.154020263671875,-0.3060302734375,-0.1153717041015625,-0.17071533203125
1782891273535042300,3.164042236328125,-0.4018096923828125,-0.0914306640625,-0.2148284912109375
1782891273545064200,3.174064208984375,-0.48052978515625,-0.083587646484375,-0.2742919921875
1782891273555086000,3.184086181640625,-0.561187744140625,-0.0817108154296875,-0.3388519287109375
1782891273565108200,3.194108154296875,-0.6247406005859375,-0.060760498046875,-0.400543212890625
1782891273575130000,3.204130126953125,-0.7472381591796875,-0.0009613037109375,-0.4633636474609375
1782891273585152300,3.21415234375,-0.9006195068359375,0.110076904296875,-0.5506134033203125
1782891273595174100,3.224174072265625,-1.0570068359375,0.2095184326171875,-0.611175537109375
1782891273605196300,3.2341962890625,-1.2085723876953125,0.269073486328125,-0.6302032470703125
1782891273615218200,3.24421826171875,-1.3155975341796875,0.353607177734375,-0.6908721923828125
1782891273625240000,3.254239990234375,-1.39239501953125,0.4357757568359375,-0.7311553955078125
1782891273635262200,3.26426220703125,-1.4561004638671875,0.5367584228515625,-0.7507476806640625
1782891273645284000,3.2742841796875,-1.5759124755859375,0.6185302734375,-0.7620849609375
1782891273655306000,3.284305908203125,-1.7907867431640625,0.6686248779296875,-0.79437255859375
1782891273665328400,3.294328369140625,-2.0771331787109375,0.6754608154296875,-0.82379150390625
1782891273675350300,3.304350341796875,-2.34576416015625,0.671600341796875,-0.8663330078125
1782891273685372200,3.3143720703125,-2.4696502685546875,0.663238525390625,-0.9493255615234375
1782891273695394300,3.324394287109375,-2.4048919677734375,0.633270263671875,-1.020843505859375
1782891273705416200,3.334416259765625,-2.226104736328125,0.6076812744140625,-1.0328216552734375
1782891273715438000,3.34443798828125,-2.067352294921875,0.5982513427734375,-0.971099853515625
1782891273725460200,3.354460205078125,-1.942840576171875,0.60986328125,-0.854644775390625
1782891273735482000,3.364482177734375,-1.8032989501953125,0.603607177734375,-0.745697021484375
1782891273745504300,3.374504150390625,-1.6421051025390625,0.529937744140625,-0.6916656494140625
1782891273755526400,3.3845263671875,-1.4881744384765625,0.4731292724609375,-0.639068603515625
1782891273765548300,3.39454833984375,-1.3629150390625,0.45050048828125,-0.5953216552734375
1782891273775570200,3.404570068359375,-1.2384796142578125,0.435943603515625,-0.5496826171875
1782891273785592000,3.414592041015625,-1.1236572265625,0.4242095947265625,-0.514892578125
1782891273795614200,3.4246142578125,-1.0473785400390625,0.381256103515625,-0.489013671875
1782891273805636000,3.434635986328125,-0.9640045166015625,0.31585693359375,-0.4408721923828125
1782891273815658000,3.444657958984375,-0.83935546875,0.2313079833984375,-0.3787078857421875
1782891273825680100,3.45468017578125,-0.6990203857421875,0.1456298828125,-0.311859130859375
1782891273835702300,3.464702392578125,-0.55517578125,0.0651397705078125,-0.24835205078125
1782891273845724200,3.47472412109375,-0.4038543701171875,-0.0086822509765625,-0.18603515625
1782891273855746300,3.484746337890625,-0.2697601318359375,-0.070159912109375,-0.1235504150390625
1782891273865768200,3.494768310546875,-0.174102783203125,-0.1161956787109375,-0.0625
1782891273875790000,3.5047900390625,-0.13702392578125,-0.1314697265625,0.009002685546875
1782891273885812200,3.514812255859375,-0.0987548828125,-0.085662841796875,0.0639190673828125
1782891273895834000,3.524834228515625,-0.0195159912109375,-0.04901123046875,0.0963592529296875
1782891273905856300,3.534856201171875,0.0747833251953125,-0.037750244140625,0.0891876220703125
1782891273915878400,3.54487841796875,0.15789794921875,-0.053375244140625,0.0483245849609375
1782891273925900300,3.554900390625,0.2121124267578125,-0.07623291015625,0.0027313232421875
1782891273935922200,3.564922119140625,0.22930908203125,-0.087738037109375,-0.03265380859375
1782891273945944000,3.574944091796875,0.1965179443359375,-0.0950164794921875,-0.0646514892578125
1782891273955966200,3.58496630859375,0.13800048828125,-0.1031036376953125,-0.08306884765625
1782891273965988000,3.594988037109375,0.0887603759765625,-0.1085052490234375,-0.1179351806640625
1782891273976010000,3.605010009765625,0.032135009765625,-0.1165771484375,-0.154937744140625
1782891273986032000,3.6150322265625,-0.0341339111328125,-0.1250762939453125,-0.180572509765625
1782891273996054300,3.62505419921875,-0.1098175048828125,-0.1170654296875,-0.1996002197265625
1782891274006076200,3.635076171875,-0.194488525390625,-0.103179931640625,-0.214569091796875
1782891274016098300,3.645098388671875,-0.2927398681640625,-0.0863037109375,-0.237060546875
1782891274026120200,3.6551201171875,-0.37939453125,-0.0628204345703125,-0.2757415771484375
1782891274036142000,3.66514208984375,-0.4391937255859375,-0.0316009521484375,-0.3164520263671875
1782891274046165200,3.675165283203125,-0.4958953857421875,0.01123046875,-0.36328125
1782891274056186000,3.68518603515625,-0.5479888916015625,0.0780181884765625,-0.431884765625
1782891274066209000,3.695208984375,-0.6064453125,0.1628875732421875,-0.5230560302734375
1782891274076231200,3.705231201171875,-0.688812255859375,0.2486724853515625,-0.6106414794921875
1782891274086252300,3.715252197265625,-0.787628173828125,0.333740234375,-0.7004241943359375
1782891274096275200,3.725275146484375,-0.9076080322265625,0.4262237548828125,-0.787261962890625
1782891274106297300,3.73529736328125,-1.00238037109375,0.55938720703125,-0.87213134765625
1782891274116319200,3.7453193359375,-1.0791015625,0.6750030517578125,-0.9113616943359375
1782891274126341000,3.755341064453125,-1.1932220458984375,0.71075439453125,-0.91632080078125
1782891274136363300,3.76536328125,-1.378753662109375,0.703369140625,-0.9471588134765625
1782891274146385200,3.77538525390625,-1.5827484130859375,0.693267822265625,-0.9599609375
1782891274156407000,3.785406982421875,-1.7778778076171875,0.722503662109375,-0.958648681640625
1782891274166429200,3.79542919921875,-1.921844482421875,0.7785491943359375,-1.0411529541015625
1782891274176451300,3.805451416015625,-2.05218505859375,0.8251190185546875,-1.2642059326171875
1782891274186473200,3.81547314453125,-2.143035888671875,0.8406219482421875,-1.3714141845703125
1782891274196495400,3.825495361328125,-2.0790863037109375,0.8800201416015625,-1.4044647216796875
1782891274206517200,3.835517333984375,-1.8285980224609375,0.85076904296875,-1.33642578125
1782891274216539100,3.8455390625,-1.47314453125,0.7856292724609375,-1.249969482421875
1782891274226561000,3.85556103515625,-1.1504974365234375,0.7008209228515625,-1.17510986328125
1782891274236583200,3.865583251953125,-0.9104156494140625,0.6378173828125,-1.115509033203125
1782891274246605000,3.87560498046875,-0.7704925537109375,0.6183319091796875,-1.0719451904296875
1782891274256627200,3.885627197265625,-0.703094482421875,0.6330413818359375,-1.00286865234375
1782891274266649300,3.8956494140625,-0.6533660888671875,0.6334381103515625,-0.925689697265625
1782891274276671200,3.905671142578125,-0.5877838134765625,0.59002685546875,-0.871124267578125
1782891274286693000,3.915693115234375,-0.529327392578125,0.5063323974609375,-0.8292083740234375
1782891274296715300,3.92571533203125,-0.50616455078125,0.398223876953125,-0.7910614013671875
1782891274306737200,3.935737060546875,-0.5083160400390625,0.284393310546875,-0.7403564453125
1782891274316759000,3.945759033203125,-0.535888671875,0.185302734375,-0.685516357421875
1782891274326781200,3.95578125,-0.5645904541015625,0.0991363525390625,-0.6420745849609375
1782891274336803000,3.965802978515625,-0.59429931640625,-0.009246826171875,-0.5539703369140625
1782891274346825500,3.975825439453125,-0.586151123046875,-0.14581298828125,-0.439178466796875
1782891274356844300,3.98584423828125,-0.51336669921875,-0.2595367431640625,-0.3217620849609375
1782891274366866400,3.995866455078125,-0.3681640625,-0.3005218505859375,-0.2070465087890625
1782891274376888300,4.005888427734375,-0.1600799560546875,-0.2808990478515625,-0.09210205078125
1782891274386910200,4.01591015625,0.0673675537109375,-0.222076416015625,0.0203704833984375
1782891274396932400,4.025932373046875,0.2491455078125,-0.2105712890625,0.0797882080078125
1782891274406954200,4.035954345703125,0.4186248779296875,-0.1240081787109375,0.12774658203125
1782891274416976100,4.04597607421875,0.573699951171875,-0.006378173828125,0.2026824951171875
1782891274426998300,4.055998291015625,0.627899169921875,0.0589752197265625,0.218994140625
1782891274437020400,4.0660205078125,0.6145477294921875,0.0886993408203125,0.1676177978515625
1782891274447042300,4.076042236328125,0.5685272216796875,0.08563232421875,0.0937042236328125
1782891274457064200,4.086064208984375,0.4591522216796875,0.0567169189453125,0.0278167724609375
1782891274467087400,4.09608740234375,0.3078460693359375,0.0021209716796875,-0.0122528076171875
1782891274477109200,4.106109130859375,0.2523040771484375,-0.0071258544921875,-0.109710693359375
1782891274487130000,4.116130126953125,0.1558837890625,0.01934814453125,-0.209991455078125
1782891274497153300,4.1261533203125,0.02398681640625,0.049072265625,-0.3865966796875
1782891274507174100,4.136174072265625,-0.1243438720703125,0.098785400390625,-0.6331939697265625
1782891274517197300,4.146197265625,-0.243408203125,0.2025146484375,-0.880157470703125
1782891274527219200,4.15621923828125,-0.32208251953125,0.355194091796875,-1.0554046630859375
1782891274537241300,4.166241455078125,-0.36077880859375,0.543731689453125,-1.160919189453125
1782891274547263500,4.176263427734375,-0.3739013671875,0.72320556640625,-1.2581939697265625
1782891274557285400,4.186285400390625,-0.3823394775390625,0.922149658203125,-1.4393310546875
1782891274567307300,4.196307373046875,-0.37469482421875,1.2158050537109375,-1.750152587890625
1782891274577329200,4.2063291015625,-0.4091644287109375,1.4815521240234375,-1.98504638671875
1782891274587351300,4.216351318359375,-0.504486083984375,1.65472412109375,-2.056304931640625
1782891274597373200,4.226373291015625,-0.6884918212890625,1.731109619140625,-2.0369873046875
1782891274607395000,4.23639501953125,-0.879425048828125,1.7408447265625,-2.046600341796875
1782891274617417200,4.246417236328125,-1.0922088623046875,1.7468109130859375,-2.171295166015625
1782891274627439400,4.256439453125,-1.2495574951171875,1.5311126708984375,-2.061767578125
1782891274637461200,4.266461181640625,-1.2723541259765625,1.3801727294921875,-1.942138671875
1782891274647483400,4.2764833984375,-1.213287353515625,1.319183349609375,-1.8044281005859375
1782891274657505300,4.28650537109375,-1.0900726318359375,1.324554443359375,-1.644134521484375
1782891274667527200,4.296527099609375,-0.9683074951171875,1.349365234375,-1.4892730712890625
1782891274677549300,4.30654931640625,-0.871337890625,1.3146514892578125,-1.3542633056640625
1782891274687571200,4.3165712890625,-0.7838897705078125,1.2418365478515625,-1.220458984375
1782891274697593000,4.326593017578125,-0.691314697265625,1.1270904541015625,-1.12469482421875
1782891274707615500,4.336615478515625,-0.6067047119140625,0.9913330078125,-1.0621490478515625
1782891274717637400,4.346637451171875,-0.533233642578125,0.890625,-0.99456787109375
1782891274727659300,4.3566591796875,-0.480560302734375,0.804229736328125,-0.92822265625
1782891274737681200,4.36668115234375,-0.4573822021484375,0.7249755859375,-0.8611907958984375
1782891274747703300,4.376703369140625,-0.4344329833984375,0.6521453857421875,-0.789886474609375
1782891274757725200,4.38672509765625,-0.417388916015625,0.5789794921875,-0.7205657958984375
1782891274767747000,4.3967470703125,-0.4084320068359375,0.48175048828125,-0.631744384765625
1782891274777769200,4.406769287109375,-0.398590087890625,0.3700408935546875,-0.522552490234375
1782891274787791400,4.416791259765625,-0.3784942626953125,0.2528076171875,-0.40179443359375
1782891274797813200,4.426813232421875,-0.3628692626953125,0.1338653564453125,-0.2845458984375
1782891274807835400,4.43683544921875,-0.3551177978515625,0.023193359375,-0.1794586181640625
1782891274817857300,4.446857177734375,-0.3465118408203125,-0.0836944580078125,-0.0974273681640625
1782891274827879200,4.456879150390625,-0.3240966796875,-0.15362548828125,-0.078033447265625
1782891274837901300,4.4669013671875,-0.2836761474609375,-0.175750732421875,-0.08355712890625
1782891274847923200,4.476923095703125,-0.2412261962890625,-0.1587066650390625,-0.08172607421875
1782891274857945000,4.486945068359375,-0.1963348388671875,-0.113739013671875,-0.0655517578125
1782891274867967500,4.496967529296875,-0.1427154541015625,-0.0731964111328125,-0.0494537353515625
1782891274877989400,4.5069892578125,-0.0724334716796875,-0.050018310546875,-0.0380859375
1782891274888011300,4.51701123046875,-0.005096435546875,-0.0336456298828125,-0.026885986328125
1782891274898033400,4.527033447265625,0.0464630126953125,-0.0250244140625,-0.0170135498046875
1782891274908055300,4.53705517578125,0.078704833984375,-0.016326904296875,-0.018341064453125
1782891274918077200,4.5470771484375,0.09033203125,-0.006439208984375,-0.036956787109375
1782891274928099000,4.55709912109375,0.07855224609375,-0.0033416748046875,-0.068145751953125
1782891274938121200,4.567121337890625,0.04681396484375,-0.003509521484375,-0.112945556640625
1782891274948143400,4.577143310546875,0.010833740234375,-0.001922607421875,-0.157073974609375
1782891274958165200,4.587165283203125,-0.0435028076171875,0.0141143798828125,-0.209747314453125
1782891274968187400,4.5971875,-0.1093902587890625,0.0430908203125,-0.2471466064453125
1782891274978209300,4.607209228515625,-0.1750640869140625,0.085479736328125,-0.299713134765625
1782891274988231200,4.617231201171875,-0.2625274658203125,0.13629150390625,-0.3919525146484375
1782891274998253300,4.62725341796875,-0.3563690185546875,0.21551513671875,-0.51123046875
1782891275008275200,4.637275146484375,-0.4223175048828125,0.3360595703125,-0.63385009765625
1782891275018297000,4.647297119140625,-0.43963623046875,0.453460693359375,-0.740264892578125
1782891275028319200,4.6573193359375,-0.421630859375,0.561553955078125,-0.839569091796875
1782891275038341400,4.66734130859375,-0.424285888671875,0.6671600341796875,-0.945648193359375
1782891275048363300,4.67736328125,-0.4853057861328125,0.7452850341796875,-1.042816162109375
1782891275058385400,4.687385498046875,-0.605560302734375,0.7856292724609375,-1.1163177490234375
1782891275068407300,4.6974072265625,-0.7183685302734375,0.8333282470703125,-1.1939544677734375
1782891275078429200,4.70742919921875,-0.80511474609375,0.889862060546875,-1.2919158935546875
1782891275088451300,4.717451416015625,-0.908050537109375,0.9602203369140625,-1.43865966796875
1782891275098473200,4.72747314453125,-1.0473785400390625,1.0032806396484375,-1.5766448974609375
1782891275108495400,4.737495361328125,-1.196868896484375,0.998291015625,-1.6463775634765625
1782891275118517200,4.747517333984375,-1.3204193115234375,0.9634552001953125,-1.6559600830078125
1782891275128539400,4.757539306640625,-1.398834228515625,0.9343719482421875,-1.6050872802734375
1782891275138561300,4.767561279296875,-1.46075439453125,0.9130859375,-1.5111083984375
1782891275148583200,4.777583251953125,-1.5209503173828125,0.903228759765625,-1.4140472412109375
1782891275158605300,4.787605224609375,-1.5175628662109375,0.8818206787109375,-1.3155517578125
1782891275168627200,4.797627197265625,-1.4355316162109375,0.84100341796875,-1.220977783203125
1782891275178649000,4.807649169921875,-1.2949676513671875,0.790924072265625,-1.1391448974609375
1782891275188671200,4.817671142578125,-1.12890625,0.7361297607421875,-1.0459747314453125
1782891275198693400,4.827693359375,-0.96966552734375,0.6875457763671875,-0.95635986328125
1782891275208715300,4.83771533203125,-0.8520050048828125,0.6532745361328125,-0.8936920166015625
1782891275218737400,4.8477373046875,-0.7533111572265625,0.616668701171875,-0.851470947265625
1782891275228759300,4.85775927734375,-0.67132568359375,0.5545806884765625,-0.804840087890625
1782891275238781200,4.86778125,-0.5813446044921875,0.4576568603515625,-0.73394775390625
1782891275248803300,4.87780322265625,-0.497955322265625,0.3355255126953125,-0.6500091552734375
1782891275258825200,4.8878251953125,-0.4538726806640625,0.210052490234375,-0.5674896240234375
1782891275268847000,4.89784716796875,-0.4254150390625,0.0831451416015625,-0.4818115234375
1782891275278869200,4.907869140625,-0.3839111328125,-0.0382080078125,-0.36785888671875
1782891275288891400,4.917891357421875,-0.3158416748046875,-0.135711669921875,-0.2639923095703125
1782891275298913300,4.927913330078125,-0.2430267333984375,-0.1952667236328125,-0.1829833984375
1782891275308935200,4.93793505859375,-0.1803131103515625,-0.2049713134765625,-0.131011962890625
1782891275318957300,4.947957275390625,-0.1283111572265625,-0.1743621826171875,-0.09259033203125
1782891275328979500,4.9579794921875,-0.0723114013671875,-0.1307525634765625,-0.075653076171875
1782891275339001300,4.96800146484375,-0.016754150390625,-0.1144561767578125,-0.076934814453125
1782891275349023200,4.978023193359375,0.04034423828125,-0.108367919921875,-0.0925140380859375
1782891275359045600,4.988045654296875,0.10772705078125,-0.1046905517578125,-0.11181640625
1782891275369067500,4.998067626953125,0.1641998291015625,-0.100616455078125,-0.1244049072265625
1782891275379089400,5.00808935546875,0.204833984375,-0.0912322998046875,-0.134674072265625
1782891275389111300,5.018111328125,0.229034423828125,-0.08660888671875,-0.1409759521484375
1782891275399133400,5.028133544921875,0.2146148681640625,-0.09307861328125,-0.1646270751953125
1782891275409155300,5.0381552734375,0.14813232421875,-0.1088714599609375,-0.2064666748046875
1782891275419177200,5.04817724609375,0.0449371337890625,-0.1222076416015625,-0.2514801025390625
1782891275429199400,5.058199462890625,-0.07427978515625,-0.1176605224609375,-0.283477783203125
1782891275439221500,5.068221435546875,-0.1759033203125,-0.0996246337890625,-0.3101348876953125
1782891275449243400,5.078243408203125,-0.2477264404296875,-0.074554443359375,-0.3458709716796875
1782891275459265500,5.088265625,-0.3152618408203125,-0.0431060791015625,-0.407806396484375
1782891275469287400,5.098287353515625,-0.3791351318359375,0.00927734375,-0.4992218017578125
1782891275479309300,5.108309326171875,-0.429473876953125,0.098114013671875,-0.5874176025390625
1782891275489331500,5.11833154296875,-0.461273193359375,0.229339599609375,-0.6723785400390625
1782891275499353300,5.128353271484375,-0.47967529296875,0.3797760009765625,-0.7614593505859375
1782891275509375200,5.138375244140625,-0.5237884521484375,0.51214599609375,-0.870025634765625
1782891275519397400,5.1483974609375,-0.6352386474609375,0.621978759765625,-1.019683837890625
1782891275529419500,5.15841943359375,-0.786285400390625,0.7453765869140625,-1.242767333984375
1782891275539441400,5.16844140625,-0.9439239501953125,0.8993988037109375,-1.47149658203125
1782891275549463600,5.178463623046875,-1.116790771484375,1.0727996826171875,-1.629119873046875
1782891275559485400,5.1884853515625,-1.2716217041015625,1.246429443359375,-1.763702392578125
1782891275569507300,5.19850732421875,-1.3737640380859375,1.3741607666015625,-1.908355712890625
1782891275579529200,5.208529296875,-1.48992919921875,1.3585052490234375,-2.01666259765625
1782891275589551400,5.21855126953125,-1.6474151611328125,1.2135009765625,-2.055572509765625
1782891275599573200,5.2285732421875,-1.7667083740234375,1.0804901123046875,-1.97509765625
1782891275609595400,5.238595458984375,-1.8087310791015625,1.0119476318359375,-1.7740020751953125
1782891275619617500,5.248617431640625,-1.7717132568359375,0.9980621337890625,-1.57080078125
1782891275629639400,5.258639404296875,-1.694000244140625,1.0150604248046875,-1.3912200927734375
1782891275639661300,5.268661376953125,-1.605316162109375,1.02197265625,-1.219390869140625
1782891275649683500,5.278683349609375,-1.526214599609375,0.9757080078125,-1.06695556640625
1782891275659705300,5.288705322265625,-1.419830322265625,0.8868560791015625,-0.92822265625
1782891275669727200,5.298727294921875,-1.27313232421875,0.7893524169921875,-0.816436767578125
1782891275679749400,5.308749267578125,-1.10919189453125,0.6946258544921875,-0.727142333984375
1782891275689771500,5.318771484375,-0.9428558349609375,0.6003265380859375,-0.661712646484375
1782891275699793400,5.32879345703125,-0.78857421875,0.5018310546875,-0.625701904296875
1782891275709815600,5.338815673828125,-0.6609344482421875,0.4188079833984375,-0.6090545654296875
1782891275719837400,5.34883740234375,-0.55035400390625,0.32269287109375,-0.5803680419921875
1782891275729859300,5.358859375,-0.4485321044921875,0.2127227783203125,-0.535736083984375
1782891275739881200,5.368881103515625,-0.3253021240234375,0.1084442138671875,-0.45672607421875
1782891275749903400,5.3789033203125,-0.24822998046875,0.034393310546875,-0.354766845703125
1782891275759925200,5.38892529296875,-0.2626800537109375,-0.019805908203125,-0.25616455078125
1782891275769947400,5.398947509765625,-0.318206787109375,-0.0349884033203125,-0.1824493408203125
1782891275779969500,5.408969482421875,-0.3477783203125,-0.042022705078125,-0.1115570068359375
1782891275789991400,5.418991455078125,-0.3624420166015625,-0.0586700439453125,-0.0734710693359375
1782891275800013300,5.429013427734375,-0.3728179931640625,-0.0718841552734375,-0.0594940185546875
1782891275810035500,5.439035400390625,-0.360748291015625,-0.0814666748046875,-0.06512451171875
1782891275820057300,5.449057373046875,-0.3419342041015625,-0.0955047607421875,-0.0911407470703125
1782891275830079200,5.459079345703125,-0.3300018310546875,-0.1042938232421875,-0.1292266845703125
1782891275840101400,5.469101318359375,-0.3015289306640625,-0.1093902587890625,-0.16729736328125
1782891275850123500,5.47912353515625,-0.2522735595703125,-0.1140594482421875,-0.192962646484375
1782891275860145400,5.4891455078125,-0.198974609375,-0.11260986328125,-0.198516845703125
1782891275870167600,5.49916748046875,-0.132904052734375,-0.0940704345703125,-0.1800079345703125
1782891275880189400,5.509189453125,-0.0604095458984375,-0.061065673828125,-0.1389007568359375
1782891275890211300,5.51921142578125,0.0129241943359375,-0.02569580078125,-0.094512939453125
1782891275900233500,5.5292333984375,0.07977294921875,0.0016937255859375,-0.0328826904296875
1782891275910255400,5.53925537109375,0.14166259765625,0.0279541015625,0.019256591796875
1782891275920277200,5.54927734375,0.15576171875,0.0545501708984375,0.047210693359375
1782891275930299400,5.55929931640625,0.128082275390625,0.0801849365234375,0.0638427734375
1782891275940321500,5.569321533203125,0.060394287109375,0.1001434326171875,0.0501251220703125
1782891275950343400,5.579343505859375,0.01763916015625,0.116668701171875,-0.005340576171875
1782891275960365300,5.589365234375,0.026824951171875,0.1493682861328125,-0.0902099609375
1782891275970387500,5.599387451171875,0.06622314453125,0.20733642578125,-0.1769561767578125
1782891275980409300,5.609409423828125,0.1102447509765625,0.2783966064453125,-0.2375335693359375
1782891275990431200,5.61943115234375,0.1530914306640625,0.3747406005859375,-0.292022705078125
1782891276000453400,5.629453369140625,0.1652374267578125,0.501129150390625,-0.3704071044921875
1782891276010475500,5.6394755859375,0.1402435302734375,0.6538238525390625,-0.491973876953125
1782891276020497400,5.649497314453125,0.0594940185546875,0.7888031005859375,-0.6352386474609375
1782891276030519600,5.65951953125,-0.075225830078125,0.9486541748046875,-0.8253936767578125
1782891276040541400,5.66954150390625,-0.260986328125,1.1165771484375,-1.02337646484375
1782891276050563300,5.679563232421875,-0.5278778076171875,1.2743682861328125,-1.2258148193359375
1782891276060585500,5.68958544921875,-0.8817901611328125,1.4173431396484375,-1.400238037109375
1782891276070607400,5.699607421875,-1.2724456787109375,1.5527801513671875,-1.5179443359375
1782891276080629200,5.709629150390625,-1.615142822265625,1.63543701171875,-1.6281280517578125
1782891276090651400,5.7196513671875,-1.8176422119140625,1.6494598388671875,-1.8169403076171875
1782891276100673500,5.729673583984375,-1.804046630859375,1.6269989013671875,-1.9846038818359375
1782891276110695400,5.7396953125,-1.72601318359375,1.5712738037109375,-2.0756378173828125
1782891276120717300,5.74971728515625,-1.682647705078125,1.427886962890625,-2.1656494140625
1782891276130739500,5.759739501953125,-1.5841827392578125,1.3240203857421875,-2.107666015625
1782891276140761300,5.76976123046875,-1.350341796875,1.225311279296875,-1.92877197265625
1782891276150783200,5.779783203125,-1.06353759765625,1.1165313720703125,-1.7237548828125
1782891276160805400,5.789805419921875,-0.8621063232421875,1.0361328125,-1.5387725830078125
1782891276170827300,5.7998271484375,-0.779693603515625,0.9479827880859375,-1.382232666015625
1782891276180849400,5.809849365234375,-0.7902374267578125,0.814697265625,-1.2496337890625
1782891276190871600,5.81987158203125,-0.8316802978515625,0.634918212890625,-1.127655029296875
1782891276200893400,5.8298935546875,-0.8483123779296875,0.4402923583984375,-1.020965576171875
1782891276210915300,5.839915283203125,-0.8325958251953125,0.249664306640625,-0.95343017578125
1782891276220937500,5.8499375,-0.7994384765625,0.0646820068359375,-0.8857879638671875
1782891276230959400,5.85995947265625,-0.7512359619140625,-0.112335205078125,-0.828125
1782891276240981200,5.869981201171875,-0.696929931640625,-0.2562408447265625,-0.751983642578125
1782891276251003400,5.88000341796875,-0.6514739990234375,-0.4008331298828125,-0.6739654541015625
1782891276261025500,5.890025634765625,-0.566009521484375,-0.508636474609375,-0.6378936767578125
1782891276271047400,5.90004736328125,-0.4511260986328125,-0.563323974609375,-0.61651611328125
1782891276281069300,5.9100693359375,-0.3277740478515625,-0.5834197998046875,-0.59527587890625
1782891276291092500,5.920092529296875,-0.1980133056640625,-0.556732177734375,-0.5773162841796875
1782891276301113300,5.93011328125,-0.0991363525390625,-0.4909210205078125,-0.5500946044921875
1782891276311135200,5.94013525390625,-0.0345306396484375,-0.4122772216796875,-0.5096282958984375
1782891276321157400,5.950157470703125,0.000518798828125,-0.33148193359375,-0.4443359375
1782891276331180800,5.960180908203125,0.011871337890625,-0.251220703125,-0.363311767578125
1782891276341201700,5.97020166015625,0.0156402587890625,-0.1686859130859375,-0.2855224609375
1782891276351224800,5.980224853515625,0.0303192138671875,-0.100799560546875,-0.21112060546875
1782891276361246700,5.990246826171875,0.0648040771484375,-0.0517730712890625,-0.13922119140625
1782891276371268900,6.000268798828125,0.115386962890625,-0.014404296875,-0.0716400146484375
1782891276381291000,6.010291015625,0.1713409423828125,0.0013275146484375,-0.012908935546875
1782891276391313000,6.02031298828125,0.2243499755859375,0.0088958740234375,0.0243988037109375
1782891276401335000,6.0303349609375,0.2298431396484375,0.019775390625,0.0301513671875
1782891276411357000,6.04035693359375,0.20184326171875,0.048858642578125,-0.012786865234375
1782891276421378800,6.05037890625,0.1588897705078125,0.120880126953125,-0.1054229736328125
1782891276431400700,6.060400634765625,0.088958740234375,0.2348175048828125,-0.2368011474609375
1782891276441422800,6.0704228515625,0.0272369384765625,0.388397216796875,-0.3935546875
1782891276451445000,6.080445068359375,-0.0350341796875,0.569061279296875,-0.558441162109375
1782891276461467000,6.090466796875,-0.104583740234375,0.77301025390625,-0.7012176513671875
1782891276471489000,6.100489013671875,-0.1815948486328125,0.96624755859375,-0.842742919921875
1782891276481511000,6.110510986328125,-0.25213623046875,1.1884765625,-1.0172119140625
1782891276491532800,6.12053271484375,-0.3290252685546875,1.45806884765625,-1.2752227783203125
1782891276501555000,6.130554931640625,-0.4132537841796875,1.7336273193359375,-1.5638427734375
1782891276511576800,6.140576904296875,-0.4911346435546875,1.89154052734375,-1.775177001953125
1782891276521598700,6.1505986328125,-0.5850372314453125,1.9310302734375,-1.9481353759765625
1782891276531620900,6.160620849609375,-0.6578521728515625,1.9444732666015625,-2.151519775390625
1782891276541643000,6.17064306640625,-0.8319854736328125,1.7886962890625,-2.1451416015625
1782891276551665000,6.180664794921875,-0.936187744140625,1.7418060302734375,-2.0978546142578125
1782891276561687000,6.19068701171875,-0.9866180419921875,1.710601806640625,-2.0116119384765625
1782891276571709000,6.200708984375,-0.9940948486328125,1.6584014892578125,-1.9025726318359375
1782891276581730800,6.210730712890625,-0.968536376953125,1.61614990234375,-1.78515625
1782891276591753000,6.2207529296875,-0.879425048828125,1.56585693359375,-1.6087799072265625
1782891276601774800,6.23077490234375,-0.7490234375,1.5038299560546875,-1.427337646484375
1782891276611796700,6.240796630859375,-0.605804443359375,1.4183349609375,-1.2908782958984375
1782891276621819000,6.25081884765625,-0.465972900390625,1.3101806640625,-1.204010009765625
1782891276631841000,6.260841064453125,-0.3192901611328125,1.191009521484375,-1.1454925537109375
1782891276641863000,6.27086279296875,-0.175323486328125,1.064666748046875,-1.0748291015625
1782891276651884800,6.280884765625,-0.0787506103515625,0.9176788330078125,-0.9827880859375
1782891276661907000,6.290906982421875,-0.02764892578125,0.7637481689453125,-0.87530517578125
1782891276671928800,6.3009287109375,0.0111541748046875,0.603363037109375,-0.7431488037109375
1782891276681950700,6.31095068359375,0.0349884033203125,0.441650390625,-0.6032867431640625
1782891276691972900,6.320972900390625,0.0346832275390625,0.2866058349609375,-0.4665679931640625
1782891276701995000,6.3309951171875,0.0289154052734375,0.1431121826171875,-0.3461151123046875
1782891276712017000,6.341016845703125,0.0345306396484375,0.025115966796875,-0.23614501953125
1782891276722039000,6.3510390625,0.0360870361328125,-0.0582275390625,-0.1346282958984375
1782891276732061000,6.36106103515625,0.02386474609375,-0.1312713623046875,-0.036651611328125
1782891276742082800,6.371082763671875,0.0104217529296875,-0.2005157470703125,0.02606201171875
1782891276752105000,6.38110498046875,0.013092041015625,-0.25457763671875,0.0578765869140625
1782891276762126800,6.391126953125,0.023956298828125,-0.289093017578125,0.0734710693359375
1782891276772148700,6.401148681640625,0.0469207763671875,-0.2783355712890625,0.06890869140625
1782891276782171100,6.411171142578125,0.0775299072265625,-0.2215576171875,0.0525054931640625
1782891276792193000,6.421193115234375,0.1262054443359375,-0.1802978515625,0.033843994140625
1782891276802215000,6.43121484375,0.192138671875,-0.1680450439453125,0.0287933349609375
1782891276812236800,6.44123681640625,0.270172119140625,-0.146697998046875,0.027862548828125
1782891276822259000,6.451259033203125,0.316925048828125,-0.125823974609375,0.0201416015625
1782891276832280800,6.46128076171875,0.3412017822265625,-0.106109619140625,0.008392333984375
1782891276842302700,6.471302734375,0.3358917236328125,-0.079315185546875,-0.0027008056640625
1782891276852324900,6.481324951171875,0.304443359375,-0.0564727783203125,-0.022308349609375
1782891276862347000,6.491346923828125,0.2515411376953125,-0.026123046875,-0.0529022216796875
1782891276872369000,6.501368896484375,0.1883087158203125,0.0003204345703125,-0.105072021484375
1782891276882391000,6.51139111328125,0.1244049072265625,0.02996826171875,-0.160064697265625
1782891276892413000,6.521412841796875,0.06561279296875,0.0859222412109375,-0.243377685546875
1782891276902434800,6.531434814453125,0.000885009765625,0.182586669921875,-0.3537445068359375
1782891276912457000,6.54145703125,-0.0601654052734375,0.315704345703125,-0.493438720703125
1782891276922478800,6.551478759765625,-0.111419677734375,0.494171142578125,-0.6744842529296875
1782891276932500700,6.561500732421875,-0.1419830322265625,0.7238616943359375,-0.8438568115234375
1782891276942523000,6.57152294921875,-0.1422271728515625,0.958160400390625,-0.9601898193359375
1782891276952545000,6.581544921875,-0.103546142578125,1.16754150390625,-1.0751953125
1782891276962567000,6.59156689453125,-0.0675048828125,1.357391357421875,-1.2156829833984375
1782891276972588800,6.6015888671875,-0.076324462890625,1.5270233154296875,-1.3482666015625
1782891276982611000,6.61161083984375,-0.1201019287109375,1.646026611328125,-1.4591064453125
1782891276992632800,6.6216328125,-0.20770263671875,1.725250244140625,-1.5680999755859375
1782891277002654700,6.63165478515625,-0.347198486328125,1.7486419677734375,-1.68682861328125
1782891277012676900,6.6416767578125,-0.5446624755859375,1.7001800537109375,-1.7921905517578125
1782891277022698800,6.65169873046875,-0.7756500244140625,1.654052734375,-1.86431884765625
1782891277032721000,6.661720947265625,-0.9709930419921875,1.623626708984375,-1.9084320068359375
1782891277042743000,6.671742919921875,-1.111541748046875,1.588623046875,-1.9221954345703125
1782891277052765000,6.681764892578125,-1.184722900390625,1.5291290283203125,-1.8890380859375
1782891277062786800,6.691786865234375,-1.1852569580078125,1.4583892822265625,-1.784271240234375
1782891277072809000,6.70180908203125,-1.1232757568359375,1.3822784423828125,-1.6319580078125
1782891277082830800,6.711830810546875,-1.0120697021484375,1.289154052734375,-1.4779815673828125
1782891277092852700,6.721852783203125,-0.89385986328125,1.1925811767578125,-1.35302734375
1782891277102875000,6.731875,-0.7784576416015625,1.090728759765625,-1.2476806640625
1782891277112897000,6.74189697265625,-0.634185791015625,0.988128662109375,-1.154083251953125
1782891277122919000,6.7519189453125,-0.505035400390625,0.8755035400390625,-1.055694580078125
1782891277132941000,6.761941162109375,-0.39752197265625,0.731536865234375,-0.94647216796875
1782891277142963000,6.771962890625,-0.298980712890625,0.5748291015625,-0.841400146484375
1782891277152984800,6.78198486328125,-0.21710205078125,0.4168243408203125,-0.7449188232421875
1782891277163006700,6.7920068359375,-0.18017578125,0.248077392578125,-0.65057373046875
1782891277173028900,6.80202880859375,-0.1763458251953125,0.0818939208984375,-0.5809326171875
1782891277183050800,6.81205078125,-0.1915740966796875,-0.06829833984375,-0.5430145263671875
1782891277193073000,6.822072998046875,-0.2134552001953125,-0.197967529296875,-0.520172119140625
1782891277203095000,6.832094970703125,-0.222686767578125,-0.2979278564453125,-0.4820709228515625
1782891277213117000,6.842116943359375,-0.22955322265625,-0.372833251953125,-0.438507080078125
1782891277223138800,6.852138916015625,-0.22821044921875,-0.4275360107421875,-0.4017486572265625
1782891277233161000,6.862160888671875,-0.2222137451171875,-0.4584503173828125,-0.384002685546875
1782891277243182800,6.872182861328125,-0.20025634765625,-0.4432373046875,-0.3931732177734375
1782891277253204700,6.882204833984375,-0.172821044921875,-0.38336181640625,-0.403228759765625
1782891277263227000,6.892226806640625,-0.153900146484375,-0.3125762939453125,-0.396148681640625
1782891277273249000,6.9022490234375,-0.1613616943359375,-0.2477874755859375,-0.3995819091796875
1782891277283271000,6.91227099609375,-0.185638427734375,-0.1906280517578125,-0.4133148193359375
1782891277293293000,6.92229296875,-0.1990203857421875,-0.1438446044921875,-0.4287109375
1782891277303315000,6.93231494140625,-0.22491455078125,-0.1060943603515625,-0.453125
1782891277313336800,6.9423369140625,-0.2795867919921875,-0.0716705322265625,-0.482269287109375
1782891277323359000,6.95235888671875,-0.353912353515625,-0.0357513427734375,-0.5126800537109375
1782891277333381000,6.962381103515625,-0.4248809814453125,0.0088653564453125,-0.5435791015625
1782891277343403000,6.972403076171875,-0.482635498046875,0.0609130859375,-0.5758819580078125
1782891277353425200,6.982425048828125,-0.5145111083984375,0.1245269775390625,-0.613983154296875
1782891277363447000,6.992447021484375,-0.5437774658203125,0.20050048828125,-0.6866607666015625
1782891277373469200,7.00246923828125,-0.617706298828125,0.27435302734375,-0.7988128662109375
1782891277383491000,7.012490966796875,-0.6932830810546875,0.3497467041015625,-0.8973388671875
1782891277393513000,7.022512939453125,-0.7337799072265625,0.416473388671875,-0.9801025390625
1782891277403535000,7.03253515625,-0.8029022216796875,0.4620361328125,-1.0846405029296875
1782891277413557000,7.042556884765625,-0.9311981201171875,0.5048675537109375,-1.211944580078125
1782891277423579000,7.052578857421875,-1.1284942626953125,0.5668487548828125,-1.285888671875
1782891277433601000,7.06260107421875,-1.3791046142578125,0.6578369140625,-1.2920684814453125
1782891277443623200,7.072623046875,-1.6542205810546875,0.7806243896484375,-1.29388427734375
1782891277453645000,7.08264501953125,-1.8594207763671875,0.90374755859375,-1.31695556640625
1782891277463667200,7.092667236328125,-1.9394989013671875,0.943389892578125,-1.3485565185546875
1782891277473689000,7.102689208984375,-1.9490203857421875,0.89398193359375,-1.3692169189453125
1782891277483711000,7.1127109375,-1.9313507080078125,0.8374481201171875,-1.3277130126953125
1782891277493733000,7.122733154296875,-1.92315673828125,0.8407135009765625,-1.2147216796875
1782891277503755000,7.132755126953125,-1.8989410400390625,0.844085693359375,-1.1029205322265625
1782891277513777000,7.14277685546875,-1.848541259765625,0.80596923828125,-1.0240325927734375
1782891277523799000,7.152799072265625,-1.774627685546875,0.7418670654296875,-0.9600982666015625
1782891277533821200,7.1628212890625,-1.675628662109375,0.682403564453125,-0.8593902587890625
1782891277543843000,7.172843017578125,-1.5355987548828125,0.613494873046875,-0.7300262451171875
1782891277553865000,7.182864990234375,-1.371673583984375,0.5331268310546875,-0.6134490966796875
1782891277563887000,7.19288720703125,-1.1674652099609375,0.440460205078125,-0.5143585205078125
1782891277573909000,7.202908935546875,-0.941619873046875,0.3583221435546875,-0.4388275146484375
1782891277583931000,7.212930908203125,-0.69891357421875,0.266815185546875,-0.3628387451171875
1782891277593953000,7.222953125,-0.4470367431640625,0.1790771484375,-0.2820281982421875
1782891277603975200,7.23297509765625,-0.22320556640625,0.09490966796875,-0.2115631103515625
1782891277613997000,7.2429970703125,-0.0548553466796875,0.01947021484375,-0.154083251953125
1782891277624019200,7.253019287109375,0.0509185791015625,-0.0472412109375,-0.1085662841796875
1782891277634041000,7.263041015625,0.07257080078125,-0.11181640625,-0.0727996826171875
1782891277644063000,7.27306298828125,0.0396575927734375,-0.162200927734375,-0.0368194580078125
1782891277654085000,7.283085205078125,-0.0071258544921875,-0.1797637939453125,0.0087738037109375
1782891277664107000,7.29310693359375,-0.051422119140625,-0.18011474609375,0.0531463623046875
1782891277674129000,7.30312890625,-0.08685302734375,-0.174896240234375,0.0944671630859375
1782891277684151300,7.3131513671875,-0.1317291259765625,-0.15106201171875,0.1030731201171875
1782891277694173200,7.323173095703125,-0.162750244140625,-0.12945556640625,0.08935546875
1782891277704195000,7.333195068359375,-0.1891326904296875,-0.1209259033203125,0.0415802001953125
1782891277714217000,7.343217041015625,-0.27423095703125,-0.1170654296875,-0.0196380615234375
1782891277724239000,7.353239013671875,-0.344268798828125,-0.1189422607421875,-0.0750274658203125
1782891277734261000,7.363260986328125,-0.3766326904296875,-0.1258544921875,-0.10772705078125
1782891277744283000,7.373282958984375,-0.381256103515625,-0.137786865234375,-0.109466552734375
1782891277754305000,7.383304931640625,-0.37347412109375,-0.1499786376953125,-0.11090087890625
1782891277764327200,7.3933271484375,-0.3988189697265625,-0.16851806640625,-0.1307525634765625
1782891277774349000,7.40334912109375,-0.455169677734375,-0.1855316162109375,-0.1725616455078125
1782891277784371200,7.41337109375,-0.535675048828125,-0.21099853515625,-0.2063751220703125
1782891277794393000,7.42339306640625,-0.577239990234375,-0.230743408203125,-0.2081146240234375
1782891277804415000,7.4334150390625,-0.560028076171875,-0.2491455078125,-0.2018280029296875
1782891277814437000,7.44343701171875,-0.5093994140625,-0.28680419921875,-0.2115936279296875
1782891277824459000,7.453458984375,-0.464263916015625,-0.3319549560546875,-0.2421112060546875
1782891277834481000,7.46348095703125,-0.4736328125,-0.3719635009765625,-0.277130126953125
1782891277844503000,7.4735029296875,-0.5409698486328125,-0.3958740234375,-0.3088531494140625
1782891277854525200,7.483525146484375,-0.6841278076171875,-0.41595458984375,-0.3393707275390625
1782891277864547000,7.493547119140625,-0.8395538330078125,-0.4456787109375,-0.344512939453125
1782891277874569200,7.5035693359375,-0.971160888671875,-0.4697418212890625,-0.317626953125
1782891277884591000,7.513591064453125,-1.04644775390625,-0.48699951171875,-0.242095947265625
1782891277894613000,7.523613037109375,-1.06024169921875,-0.4681243896484375,-0.17352294921875
1782891277904635000,7.533634765625,-1.0618438720703125,-0.41778564453125,-0.175262451171875
1782891277914657000,7.543656982421875,-1.074188232421875,-0.4454498291015625,-0.1977996826171875
1782891277924679200,7.55367919921875,-1.108978271484375,-0.4849853515625,-0.24517822265625
1782891277934701000,7.563701171875,-1.166778564453125,-0.4726715087890625,-0.308074951171875
1782891277944723200,7.57372314453125,-1.2996368408203125,-0.4590911865234375,-0.3121490478515625
1782891277954745000,7.5837451171875,-1.5158538818359375,-0.4084014892578125,-0.3445281982421875
1782891277964767000,7.59376708984375,-1.82659912109375,-0.3567657470703125,-0.3636016845703125
1782891277974789000,7.6037890625,-2.0998382568359375,-0.273895263671875,-0.378326416015625
1782891277984811000,7.61381103515625,-2.1837921142578125,-0.17962646484375,-0.4008026123046875
1782891277994833000,7.6238330078125,-2.0661773681640625,-0.2015838623046875,-0.359771728515625
1782891278004855000,7.63385498046875,-1.7661285400390625,-0.2523345947265625,-0.294403076171875
1782891278014877200,7.643877197265625,-1.454803466796875,-0.297821044921875,-0.2458648681640625
1782891278024899000,7.653899169921875,-1.1906890869140625,-0.3140869140625,-0.219329833984375
1782891278034921200,7.663921142578125,-1.0153045654296875,-0.34161376953125,-0.18804931640625
1782891278044943000,7.673943115234375,-0.9125823974609375,-0.3515472412109375,-0.178009033203125
1782891278054965000,7.683965087890625,-0.8587799072265625,-0.3571929931640625,-0.1835174560546875
1782891278064987000,7.69398681640625,-0.8408050537109375,-0.3593597412109375,-0.18792724609375
1782891278075009000,7.704009033203125,-0.8628082275390625,-0.3509979248046875,-0.18206787109375
1782891278085031000,7.714031005859375,-0.8993377685546875,-0.33349609375,-0.169525146484375
1782891278095053000,7.724052978515625,-0.9354400634765625,-0.3138275146484375,-0.15313720703125
1782891278105075200,7.7340751953125,-0.935211181640625,-0.2807464599609375,-0.146697998046875
1782891278115097000,7.74409716796875,-0.9232635498046875,-0.2857666015625,-0.0875701904296875
1782891278125119000,7.754118896484375,-0.8761749267578125,-0.2641754150390625,-0.081695556640625
1782891278135141000,7.76414111328125,-0.8193817138671875,-0.2351531982421875,-0.0676422119140625
1782891278145163000,7.7741630859375,-0.770416259765625,-0.2196807861328125,-0.0557098388671875
1782891278155185000,7.784184814453125,-0.7124481201171875,-0.201812744140625,-0.072540283203125
1782891278165207000,7.79420703125,-0.6598663330078125,-0.1867218017578125,-0.072662353515625
1782891278175229200,7.804229248046875,-0.605133056640625,-0.168243408203125,-0.0758819580078125
1782891278185251000,7.8142509765625,-0.545654296875,-0.1495208740234375,-0.0776214599609375
1782891278195273200,7.824273193359375,-0.468048095703125,-0.13433837890625,-0.0834197998046875
1782891278205295000,7.834295166015625,-0.3712158203125,-0.1325225830078125,-0.0650177001953125
1782891278215317000,7.84431689453125,-0.2962188720703125,-0.124176025390625,-0.039642333984375
1782891278225339100,7.854339111328125,-0.23236083984375,-0.09442138671875,-0.0157012939453125
1782891278235361000,7.864361083984375,-0.1627044677734375,-0.0848846435546875,0.037078857421875
1782891278245383000,7.8743828125,-0.137939453125,-0.080535888671875,0.058563232421875
1782891278255405000,7.884405029296875,-0.17449951171875,-0.0497283935546875,0.0299224853515625
1782891278265427200,7.89442724609375,-0.2069244384765625,-0.0674591064453125,0.0507354736328125
1782891278275449000,7.904448974609375,-0.2089691162109375,-0.1190643310546875,0.0670166015625
1782891278285471000,7.914470947265625,-0.2187652587890625,-0.1497650146484375,0.018341064453125
1782891278295493000,7.9244931640625,-0.2271728515625,-0.1947021484375,-0.02301025390625
1782891278305515000,7.934514892578125,-0.2382659912109375,-0.2470855712890625,-0.057952880859375
1782891278315537000,7.944536865234375,-0.277252197265625,-0.2998046875,-0.090423583984375
1782891278325559000,7.95455908203125,-0.32086181640625,-0.3424224853515625,-0.1155242919921875
1782891278335581200,7.964581298828125,-0.35821533203125,-0.3818511962890625,-0.1185760498046875
1782891278345603300,7.974603271484375,-0.4441680908203125,-0.4404449462890625,-0.1302642822265625
1782891278355625200,7.984625244140625,-0.581695556640625,-0.48468017578125,-0.150390625
1782891278365647000,7.994647216796875,-0.7519073486328125,-0.4691314697265625,-0.1605224609375
1782891278375669200,8.004669189453125,-0.9500579833984375,-0.42999267578125,-0.1401519775390625
1782891278385691100,8.014691162109376,-1.159332275390625,-0.4033203125,-0.111114501953125
1782891278395713000,8.024713134765625,-1.3715057373046875,-0.4049835205078125,-0.122039794921875
1782891278405735200,8.034735107421875,-1.5133209228515625,-0.3876190185546875,-0.2214202880859375
1782891278415757000,8.044757080078124,-1.595855712890625,-0.38104248046875,-0.3912811279296875
1782891278425779200,8.054779296875,-1.744598388671875,-0.418060302734375,-0.5023651123046875
1782891278435801000,8.064801025390626,-1.948638916015625,-0.4008331298828125,-0.53802490234375
1782891278445823200,8.0748232421875,-2.1721038818359375,-0.3369293212890625,-0.5211334228515625
1782891278455845000,8.08484521484375,-2.384307861328125,-0.248382568359375,-0.5059051513671875
1782891278465868300,8.094868408203125,-2.475341796875,-0.146087646484375,-0.494384765625
1782891278475889200,8.10488916015625,-2.379364013671875,-0.086029052734375,-0.44073486328125
1782891278485911000,8.1149111328125,-2.135223388671875,-0.1002197265625,-0.3894500732421875
1782891278495933000,8.124932861328125,-1.805145263671875,-0.14947509765625,-0.3595428466796875
1782891278505955300,8.134955322265625,-1.4309234619140625,-0.2029876708984375,-0.3284454345703125
1782891278515977200,8.144977294921874,-1.0844573974609375,-0.2545623779296875,-0.2931671142578125
1782891278526000400,8.15500048828125,-0.851043701171875,-0.29412841796875,-0.2886962890625
1782891278536021200,8.165021240234376,-0.68017578125,-0.296142578125,-0.2884979248046875
1782891278546044200,8.175044189453125,-0.5717926025390625,-0.2738037109375,-0.293853759765625
1782891278556066000,8.185066162109376,-0.562896728515625,-0.233673095703125,-0.3129119873046875
1782891278566088200,8.195088134765625,-0.6509246826171875,-0.20611572265625,-0.329803466796875
1782891278576109000,8.205109130859375,-0.786712646484375,-0.187713623046875,-0.3310546875
1782891278586132000,8.215132080078124,-0.927337646484375,-0.1658935546875,-0.2960662841796875
1782891278596154000,8.225154052734375,-1.007843017578125,-0.147064208984375,-0.248748779296875
1782891278606176300,8.23517626953125,-1.021575927734375,-0.1499176025390625,-0.1654815673828125
1782891278616198100,8.2451982421875,-0.98187255859375,-0.1566314697265625,-0.0876007080078125
1782891278626220300,8.25522021484375,-0.896636962890625,-0.16241455078125,-0.0344696044921875
1782891278636242200,8.2652421875,-0.7707061767578125,-0.1829681396484375,0.0161285400390625
1782891278646264000,8.27526416015625,-0.6366119384765625,-0.199188232421875,0.0377655029296875
1782891278656286200,8.2852861328125,-0.516510009765625,-0.207061767578125,0.03424072265625
1782891278666308000,8.29530810546875,-0.4449462890625,-0.215087890625,0.0226898193359375
1782891278676330000,8.305330078125,-0.413604736328125,-0.2091217041015625,0.0127716064453125
1782891278686352100,8.31535205078125,-0.378997802734375,-0.1911163330078125,0.0171661376953125
1782891278696376000,8.3253759765625,-0.33612060546875,-0.188323974609375,0.01934814453125
1782891278706398200,8.335398193359374,-0.2935943603515625,-0.1928558349609375,0.0054779052734375
1782891278716420000,8.345420166015625,-0.2821197509765625,-0.1972503662109375,-0.0084228515625
1782891278726442000,8.35544189453125,-0.28302001953125,-0.212799072265625,-0.023834228515625
1782891278736464400,8.36546435546875,-0.290435791015625,-0.22845458984375,-0.04693603515625
1782891278746486300,8.375486328125,-0.3154449462890625,-0.247161865234375,-0.0661773681640625
1782891278756508200,8.385508056640624,-0.36572265625,-0.26531982421875,-0.0811309814453125
1782891278766530000,8.395530029296875,-0.4304656982421875,-0.274993896484375,-0.1121978759765625
1782891278776552200,8.40555224609375,-0.5077362060546875,-0.289337158203125,-0.137176513671875
1782891278786574000,8.415573974609375,-0.58984375,-0.303466796875,-0.178314208984375
1782891278796596000,8.425595947265625,-0.675262451171875,-0.32672119140625,-0.2383880615234375
1782891278806618000,8.4356181640625,-0.793609619140625,-0.356536865234375,-0.2851409912109375
1782891278816640300,8.44564013671875,-0.922760009765625,-0.3853759765625,-0.2991485595703125
1782891278826662100,8.455662109375,-1.0502471923828125,-0.36712646484375,-0.3205413818359375
1782891278836684300,8.465684326171875,-1.1696929931640625,-0.317840576171875,-0.3710784912109375
1782891278846706200,8.4757060546875,-1.2234954833984375,-0.243621826171875,-0.430206298828125
1782891278856728000,8.48572802734375,-1.26483154296875,-0.202117919921875,-0.455169677734375
1782891278866750200,8.495750244140625,-1.3164520263671875,-0.202728271484375,-0.4559173583984375
1782891278876772000,8.505772216796874,-1.3986663818359375,-0.218963623046875,-0.4461517333984375
1782891278886794000,8.5157939453125,-1.5677947998046875,-0.2259368896484375,-0.4479827880859375
1782891278896816000,8.525816162109376,-1.8242340087890625,-0.1894989013671875,-0.4831085205078125
1782891278906838300,8.53583837890625,-2.1680145263671875,-0.12506103515625,-0.532989501953125
1782891278916860200,8.545860107421875,-2.534210205078125,-0.0540618896484375,-0.5806121826171875
1782891278926882000,8.555882080078124,-2.7242889404296875,0.006439208984375,-0.6074676513671875
1782891278936904200,8.565904296875,-2.599945068359375,-0.006927490234375,-0.5760955810546875
1782891278946926000,8.575926025390626,-2.2513885498046875,-0.0935211181640625,-0.529510498046875
1782891278956948000,8.585947998046874,-1.8928375244140625,-0.176605224609375,-0.5172119140625
1782891278966970000,8.59597021484375,-1.612213134765625,-0.25146484375,-0.54449462890625
1782891278976992300,8.6059921875,-1.3965301513671875,-0.31756591796875,-0.5872344970703125
1782891278987014100,8.61601416015625,-1.2527618408203125,-0.3738861083984375,-0.639251708984375
1782891278997036300,8.626036376953126,-1.1306915283203125,-0.416229248046875,-0.688446044921875
1782891279007058200,8.63605810546875,-0.9874267578125,-0.4375762939453125,-0.7032623291015625
1782891279017080000,8.646080078125,-0.853851318359375,-0.445220947265625,-0.6735687255859375
1782891279027102200,8.656102294921874,-0.77508544921875,-0.4347076416015625,-0.63433837890625
1782891279037124000,8.6661240234375,-0.71453857421875,-0.3964691162109375,-0.5673980712890625
1782891279047146000,8.67614599609375,-0.655426025390625,-0.3437957763671875,-0.457763671875
1782891279057168100,8.686168212890625,-0.6185455322265625,-0.2901611328125,-0.340484619140625
1782891279067190300,8.696190185546875,-0.5829010009765625,-0.2401580810546875,-0.224365234375
1782891279077212200,8.706212158203124,-0.5410308837890625,-0.196136474609375,-0.1114501953125
1782891279087234300,8.716234375,-0.4993743896484375,-0.157440185546875,-0.022674560546875
1782891279097256200,8.726256103515626,-0.4625701904296875,-0.1276702880859375,0.030059814453125
1782891279107278000,8.736278076171875,-0.4457550048828125,-0.108795166015625,0.0665740966796875
1782891279117300000,8.746300048828125,-0.419647216796875,-0.095001220703125,0.0855560302734375
1782891279127322000,8.756322021484374,-0.358306884765625,-0.0885467529296875,0.085235595703125
1782891279137344000,8.766343994140625,-0.309783935546875,-0.0946502685546875,0.0698394775390625
1782891279147366100,8.7763662109375,-0.2697906494140625,-0.11444091796875,0.040985107421875
1782891279157388300,8.78638818359375,-0.2156829833984375,-0.1334381103515625,0.0248565673828125
1782891279167410200,8.79641015625,-0.1554107666015625,-0.1407470703125,0.023193359375
1782891279177432000,8.80643212890625,-0.10443115234375,-0.134033203125,0.0126190185546875
1782891279187454200,8.8164541015625,-0.093231201171875,-0.1495208740234375,0.0270843505859375
1782891279197476000,8.82647607421875,-0.0973663330078125,-0.1629791259765625,0.04364013671875
1782891279207498000,8.836498046875,-0.1098480224609375,-0.1732940673828125,0.06939697265625
1782891279217520000,8.84652001953125,-0.1365966796875,-0.1816253662109375,0.100830078125
1782891279227542300,8.856542236328124,-0.196990966796875,-0.201507568359375,0.1080474853515625
1782891279237564200,8.866564208984375,-0.3135223388671875,-0.2242584228515625,0.0883026123046875
1782891279247586300,8.87658642578125,-0.4752044677734375,-0.2451934814453125,0.053131103515625
1782891279257608200,8.886608154296875,-0.612945556640625,-0.27630615234375,0.0154876708984375
1782891279267630000,8.896630126953125,-0.6815338134765625,-0.3232879638671875,-0.046875
1782891279277652000,8.90665185546875,-0.696624755859375,-0.3602752685546875,-0.138092041015625
1782891279287674000,8.916674072265625,-0.7204437255859375,-0.39794921875,-0.2242279052734375
1782891279297696000,8.926696044921876,-0.8117828369140625,-0.423858642578125,-0.3013763427734375
1782891279307718100,8.93671826171875,-0.9338836669921875,-0.4013519287109375,-0.3639373779296875
1782891279317740300,8.946740234375,-1.0480194091796875,-0.3623809814453125,-0.3616485595703125
1782891279327761400,8.956761474609374,-1.1431884765625,-0.334320068359375,-0.325103759765625
1782891279337783300,8.966783203125,-1.1780242919921875,-0.313934326171875,-0.29248046875
1782891279347805400,8.976805419921876,-1.1821441650390625,-0.3095703125,-0.28173828125
1782891279357827300,8.986827392578125,-1.2386627197265625,-0.326995849609375,-0.3068084716796875
1782891279367849500,8.996849365234375,-1.429718017578125,-0.3523101806640625,-0.3570556640625
1782891279377871600,9.00687158203125,-1.759613037109375,-0.3461151123046875,-0.4190216064453125
1782891279387893500,9.0168935546875,-2.1497650146484375,-0.280059814453125,-0.5289459228515625
1782891279397915400,9.026915283203126,-2.464019775390625,-0.20550537109375,-0.6108551025390625
1782891279407937500,9.0369375,-2.6187896728515625,-0.1321258544921875,-0.60467529296875
1782891279417959400,9.04695947265625,-2.59466552734375,-0.0763702392578125,-0.548614501953125
1782891279427981300,9.056981201171874,-2.4231414794921875,-0.0886383056640625,-0.4942474365234375
1782891279438003500,9.06700341796875,-2.1419219970703125,-0.16070556640625,-0.4651336669921875
1782891279448025300,9.077025390625,-1.8309478759765625,-0.2373809814453125,-0.45501708984375
1782891279458047500,9.087047607421875,-1.5508270263671875,-0.2920684814453125,-0.44775390625
1782891279468069600,9.097069580078125,-1.30218505859375,-0.336090087890625,-0.43316650390625
1782891279478091500,9.107091552734374,-1.0850830078125,-0.3628082275390625,-0.4152984619140625
1782891279488113400,9.117113525390625,-0.9027862548828125,-0.3791046142578125,-0.38775634765625
1782891279498135300,9.12713525390625,-0.7278594970703125,-0.3826904296875,-0.3680267333984375
1782891279508157400,9.137157470703125,-0.5764617919921875,-0.3633575439453125,-0.344879150390625
1782891279518179300,9.147179443359375,-0.500946044921875,-0.331329345703125,-0.308349609375
1782891279528201200,9.157201171875,-0.5319671630859375,-0.279754638671875,-0.25115966796875
1782891279538223600,9.1672236328125,-0.6309814453125,-0.2146759033203125,-0.1635589599609375
1782891279548245500,9.17724560546875,-0.7333831787109375,-0.1507415771484375,-0.0597686767578125
1782891279558267400,9.187267333984375,-0.804840087890625,-0.1068572998046875,0.014251708984375
1782891279568289500,9.19728955078125,-0.81829833984375,-0.0943145751953125,0.0433807373046875
1782891279578311400,9.2073115234375,-0.763275146484375,-0.095306396484375,0.0512237548828125
1782891279588333300,9.217333251953125,-0.6449432373046875,-0.111083984375,0.0442352294921875
1782891279598355500,9.22735546875,-0.486724853515625,-0.135650634765625,0.028533935546875
1782891279608377300,9.23737744140625,-0.315155029296875,-0.1565093994140625,0.0162506103515625
1782891279618399500,9.2473994140625,-0.157318115234375,-0.1710357666015625,0.0060272216796875
1782891279628421600,9.257421630859374,-0.0417327880859375,-0.187042236328125,-0.00482177734375
1782891279638443500,9.267443603515625,0.0087738037109375,-0.207061767578125,-0.0041656494140625
1782891279648465400,9.27746533203125,0.013702392578125,-0.2025146484375,-0.0027008056640625
1782891279658487300,9.2874873046875,0.0079193115234375,-0.1928863525390625,0.013946533203125
1782891279668509400,9.297509521484375,-0.0226287841796875,-0.19677734375,0.0386810302734375
1782891279678531300,9.30753125,-0.121612548828125,-0.190338134765625,0.035919189453125
1782891279688553200,9.31755322265625,-0.2486572265625,-0.18353271484375,0.0285491943359375
1782891279698575600,9.32757568359375,-0.345855712890625,-0.19427490234375,-0.005523681640625
1782891279708597500,9.337597412109375,-0.4076080322265625,-0.2078094482421875,-0.041839599609375
1782891279718619400,9.347619384765625,-0.4568939208984375,-0.217529296875,-0.062469482421875
1782891279728641500,9.3576416015625,-0.506683349609375,-0.226348876953125,-0.08856201171875
1782891279738663400,9.367663330078125,-0.5599365234375,-0.2416229248046875,-0.1214447021484375
1782891279748685300,9.377685302734376,-0.613067626953125,-0.267303466796875,-0.15771484375
1782891279758707500,9.38770751953125,-0.65594482421875,-0.28546142578125,-0.2019500732421875
1782891279768729300,9.397729248046875,-0.70751953125,-0.298980712890625,-0.228668212890625
1782891279778751500,9.40775146484375,-0.81591796875,-0.3025665283203125,-0.233428955078125
1782891279788773600,9.417773681640625,-0.987060546875,-0.269775390625,-0.238494873046875
1782891279798795500,9.42779541015625,-1.1828155517578125,-0.206695556640625,-0.2549285888671875
1782891279808817400,9.4378173828125,-1.3880157470703125,-0.142578125,-0.2870941162109375
1782891279818839600,9.447839599609376,-1.485198974609375,-0.10009765625,-0.3581085205078125
1782891279828861400,9.457861328125,-1.502960205078125,-0.10748291015625,-0.3984222412109375
1782891279838883300,9.46788330078125,-1.6033935546875,-0.1386566162109375,-0.4269561767578125
1782891279848905200,9.4779052734375,-1.7274322509765625,-0.1203460693359375,-0.5205841064453125
1782891279858927600,9.487927734375,-1.9047088623046875,-0.0882110595703125,-0.5843353271484375
1782891279868949500,9.497949462890626,-2.164031982421875,-0.0559844970703125,-0.595733642578125
1782891279878971400,9.507971435546875,-2.4634857177734375,0.0240936279296875,-0.596221923828125
1782891279888993500,9.51799365234375,-2.670257568359375,0.1146392822265625,-0.60284423828125
1782891279899015400,9.528015380859374,-2.6983184814453125,0.141693115234375,-0.5904693603515625
1782891279909037300,9.538037353515625,-2.538970947265625,0.092315673828125,-0.541259765625
1782891279919059500,9.5480595703125,-2.2649993896484375,-0.0002593994140625,-0.46771240234375
1782891279929081300,9.558081298828125,-1.9755706787109375,-0.061279296875,-0.429229736328125
1782891279939103500,9.568103515625,-1.742279052734375,-0.1674041748046875,-0.3560028076171875
1782891279949125600,9.578125732421874,-1.5530853271484375,-0.2529754638671875,-0.343231201171875
1782891279959147500,9.5881474609375,-1.41473388671875,-0.2909698486328125,-0.3804931640625
1782891279969169400,9.59816943359375,-1.2974853515625,-0.3277435302734375,-0.4189605712890625
1782891279979192600,9.608192626953125,-1.166656494140625,-0.3444671630859375,-0.4429931640625
1782891279989213400,9.61821337890625,-1.0395965576171875,-0.3443603515625,-0.430023193359375
1782891279999236400,9.628236328125,-0.9200439453125,-0.33087158203125,-0.379669189453125
1782891280009257200,9.63825732421875,-0.8121490478515625,-0.295074462890625,-0.3193359375
1782891280019280400,9.6482802734375,-0.750335693359375,-0.2608489990234375,-0.23809814453125
1782891280029302300,9.65830224609375,-0.74444580078125,-0.221343994140625,-0.1530303955078125
1782891280039324400,9.668324462890626,-0.7727508544921875,-0.164947509765625,-0.0936279296875
1782891280049346600,9.6783466796875,-0.7993316650390625,-0.1134490966796875,-0.055511474609375
1782891280059368400,9.688368408203125,-0.781890869140625,-0.0779266357421875,-0.0217437744140625
1782891280069390600,9.698390625,-0.72125244140625,-0.060150146484375,-0.0166168212890625
1782891280079412500,9.70841259765625,-0.626617431640625,-0.0529327392578125,-0.0477294921875
1782891280089434400,9.718434326171876,-0.51556396484375,-0.0610198974609375,-0.0847930908203125
1782891280099456500,9.72845654296875,-0.389068603515625,-0.076507568359375,-0.1183624267578125
1782891280109478400,9.738478515625,-0.2356109619140625,-0.1097869873046875,-0.13873291015625
1782891280119500300,9.748500244140626,-0.0831451416015625,-0.1434173583984375,-0.1510009765625
1782891280129522400,9.7585224609375,0.0345306396484375,-0.1595306396484375,-0.1615142822265625
1782891280139544600,9.768544677734376,0.1029815673828125,-0.16937255859375,-0.1548614501953125
1782891280149566500,9.77856640625,0.106231689453125,-0.181427001953125,-0.135162353515625
1782891280159588400,9.78858837890625,0.049224853515625,-0.1861419677734375,-0.1183319091796875
1782891280169610500,9.798610595703124,-0.0500946044921875,-0.1989593505859375,-0.100006103515625
1782891280179632400,9.80863232421875,-0.1931610107421875,-0.2069244384765625,-0.0861053466796875
1782891280189654300,9.818654296875,-0.322906494140625,-0.20745849609375,-0.084014892578125
1782891280199676400,9.828676513671875,-0.428253173828125,-0.2123260498046875,-0.0836029052734375
1782891280209698600,9.838698486328125,-0.518951416015625,-0.22845458984375,-0.10064697265625
1782891280219720400,9.848720458984374,-0.5546722412109375,-0.2594146728515625,-0.1171417236328125
1782891280229742600,9.85874267578125,-0.5434417724609375,-0.3042449951171875,-0.108245849609375
1782891280239764500,9.868764404296876,-0.531524658203125,-0.33270263671875,-0.075164794921875
1782891280249786400,9.878786376953125,-0.5706329345703125,-0.3397216796875,-0.054718017578125
1782891280259808500,9.88880859375,-0.6602325439453125,-0.347076416015625,-0.059356689453125
1782891280269830400,9.898830322265624,-0.78729248046875,-0.36798095703125,-0.0714263916015625
1782891280279852300,9.908852294921875,-0.9337005615234375,-0.3713226318359375,-0.097625732421875
1782891280289874400,9.91887451171875,-1.086517333984375,-0.345672607421875,-0.0999908447265625
1782891280299896600,9.928896484375,-1.2215728759765625,-0.329498291015625,-0.0463104248046875
1782891280309918500,9.93891845703125,-1.3141326904296875,-0.3398590087890625,0.019744873046875
1782891280319940400,9.9489404296875,-1.405059814453125,-0.344573974609375,0.048492431640625
1782891280329962500,9.95896240234375,-1.53009033203125,-0.3297119140625,-0.0192718505859375
1782891280339984400,9.968984375,-1.69873046875,-0.3121795654296875,-0.1622314453125
1782891280350006500,9.979006591796875,-1.9713287353515625,-0.294158935546875,-0.26580810546875
1782891280360028400,9.9890283203125,-2.3626861572265625,-0.2066497802734375,-0.3247222900390625
1782891280370050300,9.99905029296875,-2.749542236328125,-0.068389892578125,-0.328369140625
1782891280380072700,10.00907275390625,-2.9505615234375,0.0451202392578125,-0.2665863037109375
1782891280390094600,10.019094482421876,-2.887847900390625,0.0735931396484375,-0.177459716796875
1782891280400116500,10.029116455078125,-2.5729827880859375,0.03009033203125,-0.1185302734375
1782891280410138600,10.039138671875,-2.154876708984375,-0.1015625,-0.036712646484375
1782891280420160500,10.049160400390624,-1.7127227783203125,-0.1771697998046875,-0.0077362060546875
1782891280430182400,10.059182373046875,-1.3175048828125,-0.2781219482421875,-0.018646240234375
1782891280440204500,10.06920458984375,-1.0092010498046875,-0.39105224609375,-0.05517578125
1782891280450226400,10.079226318359375,-0.780670166015625,-0.4343414306640625,-0.1134185791015625
1782891280460248600,10.08924853515625,-0.6252899169921875,-0.4271087646484375,-0.143096923828125
1782891280470270700,10.099270751953124,-0.526214599609375,-0.39801025390625,-0.1660919189453125
1782891280480292600,10.109292724609375,-0.471527099609375,-0.3632965087890625,-0.21246337890625
1782891280490314500,10.119314453125,-0.438995361328125,-0.31982421875,-0.2483367919921875
1782891280500336400,10.12933642578125,-0.4303436279296875,-0.2994537353515625,-0.2406768798828125
1782891280510358500,10.139358642578125,-0.471588134765625,-0.2711029052734375,-0.16192626953125
1782891280520380400,10.14938037109375,-0.5055694580078125,-0.19097900390625,-0.072601318359375
1782891280530402300,10.15940234375,-0.4912109375,-0.11407470703125,-0.003692626953125
1782891280540424700,10.1694248046875,-0.4440460205078125,-0.082275390625,0.019622802734375
1782891280550446600,10.179446533203125,-0.3399810791015625,-0.0445404052734375,-0.0470428466796875
1782891280560468500,10.189468505859375,-0.2597808837890625,-0.1092376708984375,0.0290374755859375
1782891280570490600,10.19949072265625,-0.1321868896484375,-0.1803131103515625,0.0774383544921875
1782891280580512500,10.209512451171875,-0.0278167724609375,-0.17822265625,0.0597381591796875
1782891280590534400,10.219534423828126,0.0550689697265625,-0.161895751953125,0.0050201416015625
1782891280600556500,10.229556640625,0.099273681640625,-0.16973876953125,-0.052215576171875
1782891280610578400,10.239578369140625,0.100799560546875,-0.1931610107421875,-0.09197998046875
1782891280620600600,10.2496005859375,0.0755157470703125,-0.2106170654296875,-0.119293212890625
1782891280630622700,10.259622802734375,0.028839111328125,-0.216796875,-0.12493896484375
1782891280640644600,10.26964453125,-0.024444580078125,-0.219390869140625,-0.104949951171875
1782891280650666500,10.27966650390625,-0.086029052734375,-0.2263031005859375,-0.061309814453125
1782891280660688400,10.2896884765625,-0.16705322265625,-0.2375946044921875,-0.0074005126953125
1782891280670710500,10.29971044921875,-0.2626953125,-0.2495574951171875,0.0335540771484375
1782891280680732400,10.309732421875,-0.3624725341796875,-0.2655792236328125,0.0576324462890625
1782891280690754300,10.31975439453125,-0.44061279296875,-0.2923583984375,0.06695556640625
1782891280700776700,10.329776611328125,-0.5144805908203125,-0.3308563232421875,0.0776824951171875
1782891280710798600,10.339798583984376,-0.5788116455078125,-0.37457275390625,0.09368896484375
1782891280720820500,10.349820556640625,-0.6390380859375,-0.4207611083984375,0.097869873046875
1782891280730842600,10.359842529296875,-0.715911865234375,-0.454833984375,0.048675537109375
1782891280740864500,10.369864501953124,-0.84014892578125,-0.47747802734375,-0.040496826171875
1782891280750886400,10.379886474609375,-0.997222900390625,-0.4947509765625,-0.1099395751953125
1782891280760908500,10.389908447265626,-1.144866943359375,-0.50390625,-0.1378326416015625
1782891280770930400,10.399930419921875,-1.3038787841796875,-0.5044403076171875,-0.1309051513671875
1782891280780952600,10.40995263671875,-1.5474700927734375,-0.463287353515625,-0.147186279296875
1782891280790974700,10.419974609375,-1.9075469970703125,-0.3559112548828125,-0.252777099609375
1782891280800996600,10.42999658203125,-2.3428497314453125,-0.2141876220703125,-0.413543701171875
1782891280811018500,10.4400185546875,-2.7558135986328125,-0.1177978515625,-0.4860687255859375
1782891280821040600,10.45004052734375,-3.00213623046875,-0.0572967529296875,-0.4542694091796875
1782891280831062500,10.4600625,-2.9969329833984375,-0.02886962890625,-0.3648834228515625
1782891280841084400,10.47008447265625,-2.769561767578125,-0.0459136962890625,-0.28277587890625
1782891280851106300,10.480106201171875,-2.4125213623046875,-0.111236572265625,-0.2261505126953125
1782891280861128400,10.49012841796875,-2.053985595703125,-0.213958740234375,-0.17242431640625
1782891280871150600,10.500150634765625,-1.7316131591796875,-0.2666168212890625,-0.1806640625
1782891280881172500,10.51017236328125,-1.5052337646484375,-0.309783935546875,-0.1988067626953125
1782891280891194600,10.520194580078124,-1.3604888916015625,-0.343048095703125,-0.2363433837890625
1782891280901216500,10.530216552734375,-1.264129638671875,-0.36163330078125,-0.3007965087890625
1782891280911238400,10.54023828125,-1.16009521484375,-0.380859375,-0.35162353515625
1782891280921260500,10.550260498046875,-1.02801513671875,-0.3939666748046875,-0.3857879638671875
1782891280931282400,10.560282470703125,-0.896240234375,-0.3940887451171875,-0.3940277099609375
1782891280941304300,10.57030419921875,-0.7995452880859375,-0.379364013671875,-0.3612823486328125
1782891280951326700,10.58032666015625,-0.748016357421875,-0.3486175537109375,-0.29730224609375
1782891280961348600,10.5903486328125,-0.732757568359375,-0.3052978515625,-0.2146759033203125
1782891280971370500,10.60037060546875,-0.743377685546875,-0.2521209716796875,-0.1321258544921875
1782891280981392600,10.610392578125,-0.7593994140625,-0.1948699951171875,-0.072235107421875
1782891280991414500,10.62041455078125,-0.751617431640625,-0.1470947265625,-0.03851318359375
1782891281001436400,10.6304365234375,-0.703948974609375,-0.123504638671875,-0.0169677734375
1782891281011458600,10.64045849609375,-0.6212005615234375,-0.1156463623046875,0.0018768310546875
1782891281021480400,10.65048046875,-0.5125579833984375,-0.11480712890625,0.0092620849609375
1782891281031502600,10.660502685546875,-0.3909149169921875,-0.1173248291015625,0.014678955078125
1782891281041524500,10.6705244140625,-0.2857513427734375,-0.1324005126953125,0.012542724609375
1782891281051546600,10.680546630859375,-0.197723388671875,-0.1468658447265625,0.0127410888671875
1782891281061568500,10.690568603515626,-0.1424407958984375,-0.1628570556640625,0.0151519775390625
1782891281071590400,10.70059033203125,-0.1226654052734375,-0.1761016845703125,0.0170135498046875
1782891281081612500,10.710612548828125,-0.131744384765625,-0.190948486328125,0.0031585693359375
1782891281091634400,10.720634521484374,-0.1745758056640625,-0.204071044921875,-0.020111083984375
1782891281101656300,10.73065625,-0.233734130859375,-0.2080535888671875,-0.0344696044921875
1782891281111678700,10.7406787109375,-0.289794921875,-0.2154998779296875,-0.037567138671875
1782891281121700600,10.75070068359375,-0.3677978515625,-0.2284698486328125,-0.04034423828125
1782891281131722500,10.760722412109375,-0.4527587890625,-0.235137939453125,-0.0333404541015625
1782891281141744600,10.77074462890625,-0.532012939453125,-0.24603271484375,-0.0198822021484375
1782891281151766500,10.7807666015625,-0.61083984375,-0.277252197265625,-0.00494384765625
1782891281161788400,10.790788330078126,-0.646392822265625,-0.31829833984375,0.0119476318359375
1782891281171810600,10.800810546875,-0.63787841796875,-0.36236572265625,0.0491790771484375
1782891281181832400,10.81083251953125,-0.6458587646484375,-0.424102783203125,0.08843994140625
1782891281191854600,10.8208544921875,-0.7087860107421875,-0.48199462890625,0.1065673828125
1782891281201876500,10.83087646484375,-0.846282958984375,-0.5175018310546875,0.0859832763671875
1782891281211898600,10.840898681640626,-1.02471923828125,-0.531951904296875,0.0374908447265625
1782891281221920500,10.85092041015625,-1.1875152587890625,-0.560516357421875,0.019195556640625
1782891281231942400,10.8609423828125,-1.2019195556640625,-0.587310791015625,0.05426025390625
1782891281241964500,10.870964599609374,-1.0506134033203125,-0.5921478271484375,0.09271240234375
1782891281251986400,10.880986328125,-0.964324951171875,-0.5528564453125,0.0435943603515625
1782891281262008300,10.89100830078125,-1.14410400390625,-0.46990966796875,-0.1036834716796875
1782891281272030500,10.901030517578125,-1.5023040771484375,-0.3668365478515625,-0.2893218994140625
1782891281282052600,10.911052490234376,-1.9739837646484375,-0.24517822265625,-0.4196624755859375
1782891281292074500,10.921074462890624,-2.373779296875,-0.112884521484375,-0.4053192138671875
1782891281302096600,10.9310966796875,-2.469879150390625,-0.0112457275390625,-0.244232177734375
1782891281312118500,10.941118408203126,-2.3079681396484375,0.0276947021484375,-0.0475006103515625
1782891281322140400,10.951140380859375,-2.0118865966796875,0.0048370361328125,0.087860107421875
1782891281332162600,10.96116259765625,-1.7014923095703125,-0.050628662109375,0.1364288330078125
1782891281342184400,10.971184326171874,-1.4561920166015625,-0.1235504150390625,0.12060546875
1782891281352206600,10.98120654296875,-1.28192138671875,-0.192169189453125,0.066253662109375
1782891281362228700,10.991228759765624,-1.16204833984375,-0.2396697998046875,0.01336669921875
1782891281372250600,11.001250732421875,-1.0717010498046875,-0.2629547119140625,-0.0268096923828125
1782891281382272800,11.011272705078126,-0.985595703125,-0.282806396484375,-0.070556640625
1782891281392294700,11.021294677734375,-0.9227752685546875,-0.2968902587890625,-0.11737060546875
1782891281402316500,11.031316650390625,-0.835174560546875,-0.2826385498046875,-0.1584014892578125
1782891281412338700,11.041338623046874,-0.72857666015625,-0.2915496826171875,-0.2166748046875
1782891281422360600,11.051360595703125,-0.64117431640625,-0.2552490234375,-0.3143310546875
1782891281432382500,11.061382568359376,-0.64599609375,-0.3064422607421875,-0.25555419921875
1782891281442404900,11.07140478515625,-0.6310577392578125,-0.35797119140625,-0.1637420654296875
1782891281452426800,11.0814267578125,-0.618316650390625,-0.375885009765625,-0.07452392578125
1782891281462448600,11.09144873046875,-0.66241455078125,-0.41650390625,-0.0035552978515625
1782891281472470800,11.101470703125,-0.73004150390625,-0.435577392578125,0.0165863037109375
1782891281482492700,11.11149267578125,-0.746307373046875,-0.42236328125,-0.005584716796875
1782891281492514600,11.1215146484375,-0.7283935546875,-0.4150390625,-0.0767364501953125
1782891281502536400,11.131536376953125,-0.6989288330078125,-0.4046173095703125,-0.1401824951171875
1782891281512558600,11.14155859375,-0.7120361328125,-0.4234619140625,-0.1471405029296875
1782891281522580700,11.151580810546875,-0.7503814697265625,-0.431915283203125,-0.1259002685546875
1782891281532602600,11.1616025390625,-0.7826995849609375,-0.409912109375,-0.1007232666015625
1782891281542624800,11.171624755859375,-0.8058929443359375,-0.38494873046875,-0.088714599609375
1782891281552646700,11.181646728515625,-0.834716796875,-0.3942718505859375,-0.092071533203125
1782891281562668500,11.19166845703125,-0.8360137939453125,-0.3976287841796875,-0.0987548828125
1782891281572690700,11.201690673828125,-0.8357696533203125,-0.3829803466796875,-0.097564697265625
1782891281582712600,11.211712646484376,-0.8509063720703125,-0.379425048828125,-0.126800537109375
1782891281592734500,11.221734375,-0.9036712646484375,-0.386505126953125,-0.17901611328125
1782891281602756900,11.2317568359375,-0.9422760009765625,-0.4113922119140625,-0.19488525390625
1782891281612778800,11.24177880859375,-0.8756866455078125,-0.487396240234375,-0.1573486328125
1782891281622800600,11.251800537109375,-0.7328948974609375,-0.5218658447265625,-0.1661224365234375
1782891281632822800,11.26182275390625,-0.663299560546875,-0.495880126953125,-0.2786407470703125
1782891281642844700,11.2718447265625,-0.721923828125,-0.44573974609375,-0.3873291015625
1782891281652866600,11.281866455078125,-0.85089111328125,-0.3509368896484375,-0.377685546875
