time,seconds_elapsed,z,y,x
1782891270441997800,0.070997802734375,-0.9085194505304097,1.240278439155966,0.48046661805883045
1782891270452019700,0.081019775390625,-1.3255085988044737,-0.17774788248930126,0.8151299498237669
1782891270462041600,0.09104150390625,-1.1357768850654364,-0.7072033166553825,0.6281957578487694
1782891270472063700,0.101063720703125,-0.04059329167306423,-0.35092703229095784,-0.8158335680484772
1782891270482085600,0.111085693359375,1.4680653043925762,-0.55738034639135,-2.641227040478587
1782891270492107500,0.121107421875,3.1178830142080782,-0.9962459570392965,-4.062048947659135
1782891270502130000,0.1311298828125,4.4942859339475625,-1.4885700400218367,-4.3429532167077065
1782891270512151800,0.14115185546875,5.173157255414128,-1.399785841153562,-3.357172539581358
1782891270522173700,0.151173583984375,5.232706007447838,-0.6463085568401962,-2.1398525128170847
1782891270532195600,0.161195556640625,4.986010297471284,0.25223127840235826,-1.1667708660051226
1782891270542217700,0.1712177734375,4.412983615267277,0.9017795478161423,-0.17314181346595287
1782891270552239600,0.181239501953125,3.7344028011798858,1.399116271328926,1.1355381078734994
1782891270562261500,0.191261474609375,4.053271182441711,1.029357514654845,5.376503653007745
1782891270572283600,0.20128369140625,3.4030256514787673,0.557410157007724,9.045288026851415
1782891270582305800,0.211305908203125,4.0370471928715705,-0.5263799357108772,10.401877992618083
1782891270592327700,0.22132763671875,4.941036598756909,0.18173220288511366,7.8326079348474735
1782891270602349800,0.231349853515625,5.914672956842184,3.0257623643934726,2.3194509550765154
1782891270612371700,0.241371826171875,5.412785511222482,1.8952102282389998,2.4373826302349566
1782891270622393600,0.2513935546875,4.993231480896473,0.5391220014493913,1.605326533921063
1782891270632415700,0.261415771484375,4.392331872382759,-0.5470765406504273,-0.057034431125223634
1782891270642437600,0.271437744140625,3.966599445682764,-0.6941042541727424,-0.9264251095771789
1782891270652459500,0.28145947265625,4.03139603524208,0.003004625176079571,-0.8631547066718339
1782891270662481700,0.291481689453125,4.090837235248088,0.42293819287158546,-0.33282091876864434
1782891270672503800,0.30150390625,3.800118843671679,0.6918545755498111,0.11660159559845924
1782891270682525700,0.311525634765625,4.236116643798351,0.8547116533014922,0.44712329751402136
1782891270692547800,0.3215478515625,4.7561172537356615,0.944333545102924,0.6698387047052383
1782891270702569700,0.33156982421875,4.558632441651821,1.0659442010350524,0.7872019323259591
1782891270712591600,0.341591552734375,4.320916156944632,1.2346296196140347,0.7034945983305573
1782891270722613500,0.351613525390625,3.947802975276112,1.3610126045145094,0.5239174911201
1782891270732635600,0.3616357421875,3.4866847624182697,1.4499134154997766,-0.06276274564415216
1782891270742657500,0.371657470703125,2.5320611478388306,1.4667252879604695,-0.7304387193575501
1782891270752679700,0.3816796875,1.359192257219553,1.7427293638773262,-1.2206775204986333
1782891270762701800,0.391701904296875,0.2552840901017189,2.4041489075444638,-1.7217907668754457
1782891270772723700,0.4017236328125,-0.8057733618050813,3.065950582396984,-2.732597748708725
1782891270782745600,0.41174560546875,-1.5486521682798862,3.5077389486238357,-4.04246600304991
1782891270792767700,0.421767822265625,-1.9656570986449717,4.044765804424881,-5.037267021977901
1782891270802789600,0.43178955078125,-2.265282434776425,4.538775940798223,-5.811606550121307
1782891270812811500,0.4418115234375,-3.0691946788847444,4.991175717410445,-6.4063464669615025
1782891270822833700,0.451833740234375,-4.577972517415881,5.614838946396112,-6.7396016854941845
1782891270832855800,0.461855712890625,-6.191494340491294,6.392200452709198,-6.9113815629571675
1782891270842877700,0.471877685546875,-7.850178078329563,6.865318315440416,-7.521724707120656
1782891270852899800,0.48189990234375,-9.342600409865378,6.948064403188228,-8.471779114088415
1782891270862921700,0.491921630859375,-10.416273597717284,6.817741740751266,-9.181435449919103
1782891270872943600,0.501943603515625,-10.902471891295908,6.424996222373843,-9.202863437873125
1782891270882965800,0.5119658203125,-9.993305375033616,5.93107347202301,-8.291955046379565
1782891270892987600,0.521987548828125,-8.411796062290668,5.348114009347558,-7.103309909957647
1782891270903009500,0.532009521484375,-6.696910544759035,4.666592173372209,-5.81506867327392
1782891270913031700,0.54203173828125,-5.274314613643289,3.8137633381426332,-4.795559621807932
1782891270923053800,0.5520537109375,-4.135587646600603,2.9690827380552887,-3.972530004775524
1782891270933075700,0.56207568359375,-3.368091116219759,2.218025593560934,-3.039910716733336
1782891270943097600,0.57209765625,-2.9550504133105275,1.5770438577666879,-2.2143284926086664
1782891270953119700,0.58211962890625,-2.846267382508516,0.9976651761874556,-1.3881062170147895
1782891270963142700,0.592142578125,-2.869201683372259,0.34311960994303226,-0.41579964622855187
1782891270973164800,0.602164794921875,-2.8860569565832614,-0.496214660680294,0.37159751640856264
1782891270983186700,0.612186767578125,-2.7346576038479804,-1.3729887273818253,1.1504635820657014
1782891270993208600,0.62220849609375,-2.522492524504661,-2.2545640568852425,2.023482680147886
1782891271003230500,0.63223046875,-2.384173602616787,-3.139292297461629,2.9458599756389856
1782891271013252600,0.642252685546875,-2.149610813504457,-4.150377803975344,3.765568339294195
1782891271023274800,0.652274658203125,-1.7428303400337695,-5.268281763219833,4.498523717647791
1782891271033296600,0.662296630859375,-1.0304127227962017,-6.358265449881554,5.142781990894675
1782891271043318800,0.67231884765625,-0.2633288648694754,-7.284311204752326,5.609300016969442
1782891271053340700,0.682340576171875,0.4710393028914928,-7.843378335186839,5.737533598172664
1782891271063362600,0.692362548828125,1.5720412271738051,-8.04086022466123,5.804844800901413
1782891271073384700,0.702384765625,2.9823499236464497,-7.883559538927674,6.064409344801306
1782891271083406600,0.712406494140625,4.612115610036254,-7.5244824813961975,6.39924627956748
1782891271093428700,0.7224287109375,6.558017622375488,-6.988854678738117,6.816962573072314
1782891271103451000,0.732450927734375,8.62792653813362,-6.5327031483769415,7.108467731112241
1782891271113472800,0.74247265625,9.887566534233093,-6.510243479287624,7.483078457862138
1782891271123494700,0.75249462890625,10.458910962438583,-6.404268491643667,7.664880547645688
1782891271133516800,0.762516845703125,10.70908633122444,-6.0590031018435955,7.634279073154926
1782891271143538700,0.77253857421875,10.288681821548938,-5.776938556843995,7.409474876990914
1782891271153560600,0.782560546875,9.383859471970796,-5.352942160156369,6.7751926388353105
1782891271163582700,0.792582763671875,8.701517259523271,-4.482438844287395,5.921642211332917
1782891271173604600,0.8026044921875,8.199030678966642,-3.2811563446104524,5.038278829368949
1782891271183626800,0.812626708984375,7.622264810234308,-1.9973779325544834,4.375559601280093
1782891271193648600,0.822648681640625,7.006662138107418,-0.268023744687438,3.2370781334310768
1782891271203670800,0.8326708984375,5.807141971927881,1.2680354840010404,2.05771754270494
1782891271213692700,0.842692626953125,3.825409352272749,3.2415766138941047,-0.012554945668578147
1782891271223714600,0.852714599609375,1.1960951601669192,5.543725428774953,-2.225260220989585
1782891271233736700,0.86273681640625,-1.9616846878826617,6.84666096124351,-3.3493168576449155
1782891271243758600,0.872758544921875,-4.096664333966374,8.2184841519773,-4.709448441541195
1782891271253780500,0.882780517578125,-5.009123462033272,9.423135835826397,-6.249285435202718
1782891271263803000,0.892802978515625,-5.514585259008407,10.143013121420145,-8.493153910550475
1782891271273824800,0.90282470703125,-5.97443564388752,10.16930140888691,-10.840808339065312
1782891271283846700,0.9128466796875,-6.230465583920479,9.940393284535407,-12.23419746491909
1782891271293868800,0.922868896484375,-6.6948764085829255,9.791781516692042,-12.901043417549133
1782891271303890700,0.932890625,-7.414959445881843,9.729496033170818,-13.576245695114135
1782891271313912600,0.94291259765625,-8.63878344771266,9.209507698193192,-13.75266609185934
1782891271323934500,0.9529345703125,-9.990344187140463,8.456821783453226,-13.740250846922397
1782891271333956600,0.96295654296875,-11.19712236162424,7.7643842934489244,-13.513601315152645
1782891271343978800,0.972978759765625,-11.684064167046547,7.24752548866868,-12.743134829050302
1782891271354000600,0.983000732421875,-11.144460446494817,6.8208437984198325,-11.454627634906767
1782891271364022800,0.993022705078125,-9.72574632524848,6.103917179325222,-9.66462988550663
1782891271374044700,1.003044677734375,-7.765773701980709,5.1251890510588884,-7.744217703732848
1782891271384066600,1.013066650390625,-5.413786797219514,3.8361546181708572,-6.262621886637807
1782891271394088700,1.023088623046875,-3.0381285094916817,2.523209732863307,-5.086357508361339
1782891271404110600,1.033110595703125,-1.2199515443116427,1.4102929143816232,-3.970994465771317
1782891271414132500,1.043132568359375,0.11677110694646835,0.7984136466920375,-3.1622488101571795
1782891271424155000,1.05315478515625,0.8791495636612177,0.12733984723389147,-2.1241274126797913
1782891271434176800,1.0631767578125,1.3389397427856922,-0.942795814141631,-0.6491431226789951
1782891271444198700,1.07319873046875,2.4246371304303405,-1.8625760788768528,0.6174485922545194
1782891271454220500,1.083220458984375,3.395569490253925,-3.2781530711412428,2.0711679759085175
1782891271464242700,1.09324267578125,4.036073963925242,-4.58776442811191,3.319693872797489
1782891271474264600,1.1032646484375,4.326299895809591,-5.641935043114423,4.5414305469602345
1782891271484286500,1.113286376953125,4.476511792325973,-6.608763474750519,5.909446162104606
1782891271494308600,1.12330859375,5.232707761013508,-7.391952079781889,7.384557877877354
1782891271504330800,1.133330810546875,6.362330215102434,-7.9628920188397165,8.436358256617188
1782891271514352600,1.1433525390625,7.510432913255691,-8.118682884532213,8.52179022244811
1782891271524374800,1.153374755859375,8.559255152967571,-7.701491491684317,8.190796519106627
1782891271534396700,1.163396728515625,9.184095024517179,-7.204484219321608,7.9225576703637834
1782891271544418600,1.17341845703125,9.414708199220895,-6.812855722275376,7.362106976616382
1782891271554440700,1.183440673828125,9.45116015330553,-6.597119214186072,6.725702924001216
1782891271564462600,1.193462646484375,9.458450310313701,-6.162469906058907,6.222962660944462
1782891271574484500,1.203484375,9.001902474111318,-5.937570432826877,5.925687102809548
1782891271584506600,1.213506591796875,7.723907906153798,-5.8248851338893175,5.309296495175361
1782891271594528800,1.22352880859375,6.308958105877042,-5.589632024425268,4.559913129112124
1782891271604550700,1.233550537109375,5.111327114444971,-5.410615181446075,4.157529429295659
1782891271614572500,1.243572509765625,4.476281490701437,-5.061877731621265,3.8571389540106056
1782891271624594700,1.2535947265625,4.113609039026499,-4.3868940652430055,3.5656279507517814
1782891271634616600,1.263616455078125,4.013272934052348,-3.165926621887088,3.2912405162513254
1782891271644638500,1.273638427734375,4.018523109665513,-1.7442045509964226,2.8042279836803674
1782891271654660600,1.28366064453125,3.4915105751395226,-0.7119441545069217,2.1951392234921454
1782891271664682800,1.293682861328125,3.003025631928444,0.5643447785764932,0.89662033842206
1782891271674704600,1.30370458984375,2.4430220974266526,1.9821172350585459,-0.6205781224519014
1782891271684726800,1.313726806640625,1.3936492380946874,3.6129327227622268,-2.201374318489432
1782891271694748700,1.323748779296875,0.007552022814750671,5.204185430884361,-3.989327994841337
1782891271704770600,1.3337705078125,-1.7839888643741606,6.177399764165282,-5.2368812473058695
1782891271714792700,1.343792724609375,-3.4228608172833916,7.114454404306412,-5.863903723591566
1782891271724814600,1.353814697265625,-4.376992848953605,8.60952169739306,-6.575373830845952
1782891271734837500,1.36383740234375,-5.355412934184074,9.724688925150037,-6.78940470406115
1782891271744858600,1.373858642578125,-6.1588587298244235,9.874428820240498,-6.661175214511156
1782891271754881500,1.383881591796875,-6.406049529841542,9.699693600103258,-6.666651600095629
1782891271764903400,1.3939033203125,-6.316944428455829,9.744816936421394,-6.864180251321196
1782891271774925800,1.40392578125,-6.318681042990088,9.7294007561028,-7.289605219507217
1782891271784947700,1.41394775390625,-7.090986434957385,9.211654647094011,-7.673969863030314
1782891271794969600,1.423969482421875,-8.489566115191579,8.44607184138,-7.827371787759661
1782891271804991700,1.43399169921875,-10.237250909519195,7.628264342910051,-7.475432327023148
1782891271815013600,1.444013671875,-11.252934849739074,6.532683859154582,-6.664982205578684
1782891271825035500,1.454035400390625,-11.25583174022436,5.069374224856496,-5.819092521962523
1782891271835057700,1.4640576171875,-10.464715264803171,3.526729772558808,-5.136116103264689
1782891271845079600,1.47407958984375,-8.855802981349825,2.3649942703723905,-4.363779731637239
1782891271855101700,1.484101806640625,-6.867277048292756,1.394317346614599,-3.681732118222117
1782891271865123800,1.494123779296875,-4.82464017034173,0.5126420638680458,-3.0817741744726894
1782891271875145700,1.504145751953125,-3.009505641597509,-0.36308746221661564,-2.1832488792121407
1782891271885167600,1.514167724609375,-1.539882878629863,-1.3969021024107933,-1.0478221227586269
1782891271895189800,1.524189697265625,-0.4355383659213781,-2.3954461072593927,0.20083119990229606
1782891271905211600,1.534211669921875,0.33978198995292186,-3.4398341639161107,1.5314081880122423
1782891271915233500,1.544233642578125,0.8459428751081228,-4.45257211381197,2.6499802557766436
1782891271925255400,1.55425537109375,1.056838957428932,-5.385625701618194,3.6511698066979643
1782891271935277800,1.56427783203125,1.3616507562875746,-6.210275613328814,4.619790382447839
1782891271945299700,1.5742998046875,2.237091528558731,-6.918531434711814,5.506422995340824
1782891271955321600,1.584321533203125,3.2861844019055364,-7.403926595214009,6.150517017936706
1782891271965343700,1.59434375,4.618169503247738,-7.231111529484391,6.332759837225079
1782891271975365600,1.60436572265625,6.448343195691704,-6.679663057360052,6.494816777575016
1782891271985387500,1.614387451171875,8.778129959082603,-6.2676855997681615,6.744017163848876
1782891271995409700,1.62440966796875,11.11532203029394,-6.141579093721509,6.80921122829318
1782891272005431600,1.634431640625,12.795177150976658,-6.061737495243549,6.899708660820126
1782891272015453700,1.64445361328125,13.204884910070895,-6.048889119586348,6.848184225288033
1782891272025475800,1.654475830078125,12.300967400377989,-5.820620462182164,6.082686759769916
1782891272035497700,1.664497802734375,10.472542012906073,-5.671718186959624,5.255049941202998
1782891272045519600,1.67451953125,8.372821311730146,-5.526930945840478,4.315310592022538
1782891272055541800,1.684541748046875,6.381027901309729,-5.389596943336725,3.3935715944349765
1782891272065563600,1.694563720703125,4.598312710133195,-5.317856233727932,2.715475348994136
1782891272075585500,1.70458544921875,3.328884894990921,-5.000575413918495,2.2309435273230074
1782891272085607400,1.714607421875,3.0301643987447022,-4.4817114067956805,1.8982681545048952
1782891272095629600,1.724629638671875,3.2799592437803744,-3.714001233664155,1.407922678118944
1782891272105651700,1.734651611328125,3.681693539777398,-2.808465767380595,0.5913847611933947
1782891272115673600,1.744673583984375,3.2961300418585537,-1.9945541073054074,-0.3490267881602049
1782891272125695700,1.75469580078125,2.1620745737582445,-1.3563961967602371,-1.3285533733278512
1782891272135717600,1.764717529296875,0.5592682059645653,-0.17631401376128195,-2.3871494035571814
1782891272145739500,1.774739501953125,-1.2012281391412019,1.6954188927784561,-3.6030408588230607
1782891272155761700,1.78476171875,-3.1314579505741595,3.4324697726279494,-4.538095265057683
1782891272165783600,1.794783447265625,-5.282805378612876,4.440638807173073,-4.693709605139493
1782891272175805700,1.8048056640625,-6.704667150235176,5.2495975210160015,-4.754954055175185
1782891272185827800,1.814827880859375,-7.074950076913833,5.994820260268449,-5.014988554674387
1782891272195849700,1.824849609375,-6.88690880047977,6.063372987490892,-5.433595659539103
1782891272205871600,1.83487158203125,-6.683456604424118,5.711797099369764,-5.762653426381945
1782891272215893800,1.844893798828125,-6.769154527714848,5.4582572225868695,-5.686968363061547
1782891272225915600,1.85491552734375,-7.175805237326026,5.477661011236906,-5.740773603007197
1782891272235937500,1.8649375,-7.5466896370291705,5.628231511932611,-5.599371328151226
1782891272245959700,1.874959716796875,-7.8539365540802475,5.880596499717235,-5.375737929332256
1782891272255981600,1.884981689453125,-8.241224391573667,6.058569386601448,-5.202663335883617
1782891272266003700,1.895003662109375,-8.767938819935917,6.126738082942366,-5.030073895603418
1782891272276025600,1.905025634765625,-9.215327782648801,5.966354628762603,-4.8274341849744316
1782891272286047700,1.9150478515625,-9.408249232339859,5.431827480822801,-4.577571535399556
1782891272296069600,1.925069580078125,-9.18699951378703,4.674407815559208,-4.474290024623275
1782891272306091500,1.935091552734375,-8.364211888816952,3.854871593600511,-4.248459408020973
1782891272316113700,1.94511376953125,-7.120953703197836,3.1025942596614358,-3.6656811471313238
1782891272326135300,1.95513525390625,-5.413780367478728,2.5095827740490435,-2.7794167830288408
1782891272336157400,1.965157470703125,-3.6263930928379295,1.950715842361748,-1.9475246451050041
1782891272346179600,1.9751796875,-2.0199135894894598,1.2480839983403682,-1.2745099407121538
1782891272356201500,1.985201416015625,-0.5996773732423782,0.3039715486422181,-0.6527429007366299
1782891272366223400,1.995223388671875,0.3307230697065592,-0.6504872307643293,0.060599137869477265
1782891272376245500,2.00524560546875,1.0315414345651865,-1.438781342241168,0.8552084238424896
1782891272386267400,2.015267333984375,1.9309277305692434,-2.155854968591034,1.6855138770967721
1782891272396289300,2.025289306640625,2.8769629650235173,-2.9822461710110306,2.3872759525462985
1782891272406311400,2.0353115234375,3.9430022969961165,-3.8380744803175326,3.053192223110795
1782891272416333300,2.045333251953125,5.125522813057899,-4.486315393459797,3.6244273457229137
1782891272426355500,2.05535546875,6.031251171565056,-4.886138302877545,4.002842725452781
1782891272436377600,2.065377685546875,6.788290020817517,-4.944978029859065,4.5225782547131175
1782891272446399500,2.0753994140625,7.637661116808652,-4.716850534491241,4.850143444910645
1782891272456421400,2.08542138671875,8.651726515915989,-4.496199074092507,4.873060502378642
1782891272466443500,2.095443603515625,9.615757425788045,-4.334572049592435,4.749108544017374
1782891272476465400,2.10546533203125,10.261367113643884,-4.144007684421539,4.385714792330563
1782891272486487300,2.1154873046875,10.734709432780742,-3.991331443618238,4.063740846268832
1782891272496509400,2.125509521484375,11.07695868963003,-3.8705353189393876,4.0384550138428805
1782891272506531600,2.135531494140625,10.998207224476337,-3.7574247803270815,3.8813688476428387
1782891272516553500,2.145553466796875,10.436084213602543,-3.745537943178415,3.403011622953415
1782891272526575400,2.155575439453125,9.421715447634458,-3.809964822642505,2.813540294165909
1782891272536597500,2.165597412109375,8.499033031716943,-3.8819960396304722,2.3483254596441983
1782891272546619400,2.175619384765625,7.547534855681658,-3.883757204084098,2.0530483818501235
1782891272556641300,2.185641357421875,6.550948414641618,-3.647511868712306,1.7508219233095645
1782891272566663400,2.195663330078125,5.593959824496507,-3.1928479465603825,1.486648424309492
1782891272576685300,2.205685302734375,4.7797483046919105,-2.503537064144015,1.146777294768393
1782891272586707500,2.21570751953125,4.106671348717809,-1.6746958382233976,0.7025789447903633
1782891272596729600,2.2257294921875,3.4629438213467596,-1.0425997119352222,0.33489626373797654
1782891272606751500,2.23575146484375,2.743408481058478,-0.517824434942007,-0.06929068610817193
1782891272616773400,2.2457734375,1.8108225107640028,0.13251140465289354,-0.8883741958633065
1782891272626795500,2.25579541015625,0.5783914241075515,1.106931314331293,-1.7756164650872348
1782891272636817400,2.2658173828125,-1.1212667136758565,2.1836600903615353,-2.182486370407045
1782891272646839300,2.27583935546875,-2.981111906284094,3.015156506966054,-2.5471213543266056
1782891272656861400,2.285861328125,-4.791194996857643,3.8320752399027347,-2.8939667067945
1782891272666883600,2.295883544921875,-6.040535132738947,4.739939441394806,-3.265255887906253
1782891272676905500,2.305905517578125,-6.971807097825407,5.124062677377462,-3.6764243672028183
1782891272686927400,2.31592724609375,-8.045305513632297,4.986816937679052,-4.27262617328912
1782891272696949500,2.325949462890625,-9.15082111594677,4.840845455211401,-4.817938626876473
1782891272706971400,2.335971435546875,-9.962485873878002,4.856578738655149,-5.137008083668351
1782891272716993300,2.3459931640625,-10.206157852119206,4.942083477461337,-5.440699354064464
1782891272727015400,2.356015380859375,-9.96586441040039,5.043007611456513,-5.620742032960057
1782891272737037300,2.366037353515625,-9.672753570729494,5.114746567499638,-5.577981918641925
1782891272747059500,2.3760595703125,-9.930664502203465,5.076720495966077,-5.449728463694453
1782891272757081600,2.38608154296875,-10.215048430061339,4.988516727334261,-5.071040696763992
1782891272767104500,2.3961044921875,-9.968674791646004,4.857015084245801,-4.501121332925558
1782891272777125400,2.40612548828125,-8.971101677656174,4.526504488246142,-3.790650173580646
1782891272787148500,2.4161484375,-7.614815663272142,4.059668190002441,-3.054277095738053
1782891272797170400,2.42617041015625,-6.313256095331907,3.508738188794255,-2.344073647418618
1782891272807192300,2.4361923828125,-5.04995173150599,2.7126427559167143,-1.6873779174029826
1782891272817214500,2.44621435546875,-3.7251772921949624,1.7182739909261464,-1.1393573739007115
1782891272827236400,2.456236328125,-2.5224551151037216,0.5773962755903601,-0.6764204211831092
1782891272837258200,2.46625830078125,-1.603814083531499,-0.4889195352360606,-0.08130641033351421
1782891272847280400,2.4762802734375,-0.8565162915706634,-1.427697345907986,0.7517422041490673
1782891272857302500,2.486302490234375,-0.17039397606253623,-2.3154858508378267,1.7819409919336437
1782891272867324400,2.496324462890625,0.4477724090725183,-3.235218477039039,2.692964534239471
1782891272877346600,2.5063466796875,1.213417758628726,-4.020503469827771,3.3791794964671134
1782891272887368400,2.516368408203125,2.2783552668392657,-4.5419469720497725,3.7052319440141317
1782891272897390300,2.526390380859375,3.661704060193896,-4.787879296438396,3.817708860898018
1782891272907412500,2.53641259765625,5.259754757893085,-4.764097438834607,3.8709859853163358
1782891272917434400,2.546434326171875,6.840397809195518,-4.543946329173446,3.773859490038454
1782891272927456300,2.556456298828125,8.178190720033646,-4.133573091907799,3.6456755931958553
1782891272937478700,2.566478759765625,9.152811997503042,-3.8237642154142257,3.333709830929339
1782891272947500500,2.57650048828125,9.710857968196272,-3.7166201839908957,2.926432513852417
1782891272957522400,2.5865224609375,9.727943543031811,-3.9614164900869127,2.9398060824275016
1782891272967544300,2.59654443359375,9.678712771394848,-3.5289293284296988,2.032425280538201
1782891272977566500,2.60656640625,10.059131892162561,-3.0693066148266195,1.331360539703071
1782891272987588400,2.61658837890625,9.417209368386864,-3.584082475852966,1.8077455875366926
1782891272997610200,2.6266103515625,8.408442075687647,-3.370634370961785,1.5467247073486445
1782891273007632400,2.63663232421875,6.96143300332725,-3.021033874566853,1.4897715247660874
1782891273017654500,2.646654541015625,5.370443330055475,-2.809728334662318,1.597428181886673
1782891273027676400,2.656676513671875,4.505807444915175,-2.3994797466896474,1.6394529676675795
1782891273037698600,2.666698486328125,4.37064084957838,-1.8335132121302187,1.7883441369742155
1782891273047720400,2.676720458984375,4.494968655514717,-1.4154494203619659,1.7641311944767832
1782891273057742300,2.686742431640625,3.827760299313068,-1.1014978911057114,1.944792589792609
1782891273067764500,2.696764404296875,4.2080876501441,0.22218758392482996,0.3476113684043288
1782891273077786400,2.706786376953125,4.164885052755475,0.8602597158826887,-0.43963791019469495
1782891273087808300,2.716808349609375,2.552747377514839,0.8445411916166543,0.040460312943160534
1782891273097830700,2.72683056640625,0.7655056488245725,1.402200793340802,-0.44474166307449337
1782891273107852500,2.7368525390625,-0.8903542637646198,1.9578619147241114,-1.058823409244418
1782891273117874400,2.74687451171875,-2.3997470193237063,2.353400570951402,-1.6134318067044018
1782891273127896600,2.756896484375,-3.5054730495184656,2.8837118547618386,-2.2566411554202435
1782891273137918500,2.76691845703125,-4.376085670980811,3.3332086034089325,-2.7555194823518394
1782891273147940400,2.7769404296875,-5.055249837914109,3.8548882524743675,-3.390467198678851
1782891273157962200,2.786962158203125,-5.865162199220061,4.0898651753455395,-3.881083016438782
1782891273167984400,2.796984375,-6.607981384462118,4.1140722726240755,-3.977130484308302
1782891273178006500,2.807006591796875,-7.289686468049884,4.128747571447492,-3.8643157137721773
1782891273188028400,2.8170283203125,-8.303367251753807,4.021533981919289,-4.027456942227483
1782891273198050600,2.827050537109375,-9.28394480727911,3.8591064546912905,-4.33420847697705
1782891273208072400,2.837072509765625,-9.653660747724771,3.8618741658389566,-4.438916221164167
1782891273218094300,2.84709423828125,-9.382450189694762,3.954049176189303,-4.224204964469373
1782891273228116500,2.857116455078125,-8.920123770090937,4.038336648160219,-3.5713249933496116
1782891273238138400,2.867138427734375,-8.333022969827056,4.028929352867603,-2.819573729111254
1782891273248160300,2.87716015625,-7.685906384539604,3.830332195627689,-2.292888526843488
1782891273258182400,2.887182373046875,-7.094950077891349,3.3988176783949133,-2.0625351721197367
1782891273268204500,2.89720458984375,-6.25799013518393,2.7034388742417095,-1.8726319012060761
1782891273278226400,2.907226318359375,-5.381354600170255,2.1215070010483266,-1.7194149776548147
1782891273288248600,2.91724853515625,-4.407573865178227,1.7186081913165747,-1.3945309893652795
1782891273298270500,2.9272705078125,-3.190575325453281,1.1806659742362797,-1.0087596939146517
1782891273308292400,2.937292236328125,-2.003120860120654,0.5015358557030558,-0.7419421101465821
1782891273318314500,2.947314453125,-0.839883136677742,-0.19543138668537138,-0.4273170655429363
1782891273328336100,2.957336181640625,-0.10985153681635856,-0.9952331267349421,0.056172845859825606
1782891273338358300,2.967358154296875,-0.1949988404870033,-1.5271132672972976,0.7951976072549819
1782891273348380200,2.977380126953125,-0.2586392457485199,-1.8052096393182873,1.6657815871447323
1782891273358402300,2.98740234375,0.029160628032684325,-2.132164588662982,2.4320886154800654
1782891273368424200,2.997424072265625,0.9664707042396068,-2.593881351935863,3.0703549548357723
1782891273378446000,3.007446044921875,2.3163924442887307,-3.128895698870718,3.434387881208956
1782891273388468200,3.01746826171875,3.717960200423002,-3.592807049578428,3.4657769989460703
1782891273398490000,3.027489990234375,5.325032993489503,-3.8502103237912055,3.2906805442810056
1782891273408512000,3.037511962890625,6.983948786517978,-3.91848920250833,2.955376284264028
1782891273418534400,3.047534423828125,8.249903957113624,-3.848239608240127,2.5952815741226076
1782891273428556300,3.057556396484375,9.03075096745491,-3.6515327947914598,2.458835168108344
1782891273438578200,3.067578125,9.688245738893746,-3.3329747946530577,2.48641671025604
1782891273448600300,3.077600341796875,10.32717141894102,-3.0759763018488884,2.6830098341971635
1782891273458622200,3.087622314453125,10.623920322853326,-2.9528742383152244,2.8579318090781567
1782891273468644000,3.09764404296875,10.490760391163825,-2.986031827029586,2.8570339834555982
1782891273478666000,3.107666015625,10.094129555785655,-3.133383365678787,2.891618974624574
1782891273488688000,3.117688232421875,9.652447280281782,-3.283673295867443,2.5774746992751956
1782891273498710300,3.127710205078125,9.092803811264037,-3.443577149836719,2.580048933677375
1782891273508732200,3.137732177734375,8.174542134398221,-3.6783909911006685,2.673557530719042
1782891273518754300,3.14775439453125,7.244829089191556,-3.6108570855319497,2.4185145558968184
1782891273528776200,3.157776123046875,6.023687458312511,-3.479536059707403,2.220313996759057
1782891273538798000,3.167798095703125,5.000387197870015,-3.2448230484694243,1.858252662719786
1782891273548820200,3.1778203125,4.206920359930396,-3.077127225449681,1.3253183369293808
1782891273558842000,3.187842041015625,3.4107442630320786,-3.0109651927560566,0.7121382157742977
1782891273568864000,3.197864013671875,2.7838930516600606,-2.8332658621162174,0.12322568991333245
1782891273578886100,3.20788623046875,1.7795985204607248,-2.2788823594532905,-0.47291766398400065
1782891273588908300,3.217908203125,0.2578209151029587,-1.2848195916719733,-1.1716612683951855
1782891273598930200,3.22793017578125,-1.2009732875972985,-0.10970277599543332,-1.9795523530066013
1782891273608952300,3.237952392578125,-2.78118963792026,0.5244165266834199,-2.10307410325706
1782891273618974200,3.24797412109375,-3.9096576612770555,1.3416094003863632,-2.64374837564975
1782891273628996000,3.25799609375,-4.742483280658722,2.172947557689249,-3.108231973287463
1782891273639018200,3.268018310546875,-5.352792522552609,3.1234803958237167,-3.3260414882585403
1782891273649040100,3.2780400390625,-6.353612655639648,3.974240023563802,-3.3692391172111034
1782891273659062300,3.288062255859375,-8.293207092267274,4.51624232968986,-3.549379995784163
1782891273669084200,3.298084228515625,-11.022383049833774,4.639833345784247,-3.7533234824880957
1782891273679106300,3.308106201171875,-13.907417093110084,4.5756309227257965,-3.9514053836822507
1782891273689128200,3.318128173828125,-15.603846916496753,4.540850116723775,-4.575812124511599
1782891273699150000,3.328150146484375,-15.456596500134467,4.298846071694791,-5.320106643003225
1782891273709172200,3.338172119140625,-13.84119894631505,3.9991836184233427,-5.593361274081468
1782891273719194000,3.348194091796875,-12.154323717737197,3.827826058025658,-5.228731843119859
1782891273729216000,3.358216064453125,-10.8475081289649,3.8542671979665752,-4.2754707490652795
1782891273739238100,3.368238037109375,-9.521213348218797,3.8585546660274264,-3.1992545987322925
1782891273749260300,3.37826025390625,-7.934828538393973,3.219719586873054,-2.64708658016175
1782891273759282200,3.3882822265625,-6.361719389727711,2.5135014087975023,-2.2118834375441074
1782891273769304300,3.39830419921875,-5.068472892102599,2.2323038558907804,-1.7706266939759254
1782891273779326200,3.408326171875,-3.8693829340338706,2.028054956499487,-1.3444818870827555
1782891273789348000,3.41834814453125,-2.6844454199582337,1.9403797417864201,-0.956826385320723
1782891273799370200,3.428370361328125,-1.8444401182055472,1.5699064071021973,-0.7506687296986579
1782891273809392000,3.43839208984375,-1.098497832506895,0.9758454124368726,-0.3303939838826656
1782891273819414000,3.4484140625,0.050206923192739485,0.1566407605201006,0.19515841496288774
1782891273829436400,3.4584365234375,1.4352777180343865,-0.7077727140411734,0.800964207957685
1782891273839458300,3.468458251953125,2.8531115493148564,-1.5186520206831395,1.3555483477592467
1782891273849480200,3.478480224609375,4.35171286174655,-2.2760320845887065,1.906149847665429
1782891273859502000,3.488502197265625,5.770219477722049,-2.9187966121464965,2.4571631432428953
1782891273869524200,3.498524169921875,6.8599576651901,-3.399336733832955,2.991132072778046
1782891273879546000,3.508546142578125,7.364272045695781,-3.6493811697155234,3.635340369403362
1782891273889568000,3.518568115234375,7.690247628614306,-3.265655408617854,4.192247399194538
1782891273899590100,3.528590087890625,8.412804362550377,-2.7865678238272666,4.548474912513792
1782891273909612300,3.5386123046875,9.343228186374903,-2.5582179178804156,4.579790380492806
1782891273919634200,3.54863427734375,10.220980158197879,-2.6007904006719587,4.243501201091706
1782891273929656300,3.55865625,10.83366898870468,-2.7718080615907907,3.79686276448518
1782891273939678200,3.56867822265625,11.104389132869242,-2.866799298405647,3.486677455894649
1782891273949700000,3.5787001953125,10.891477034550904,-2.8966102070406077,3.1718685791566967
1782891273959722200,3.58872216796875,10.327356127858161,-2.946237576779723,3.02989873354584
1782891273969744100,3.598744140625,9.800658650630712,-2.9731711764127016,2.773174966029823
1782891273979766000,3.60876611328125,9.284625775280594,-3.0143185948371887,2.433051323032379
1782891273989788400,3.618788330078125,8.641191677898169,-3.089986999283731,2.1799407775774595
1782891273999810300,3.628810302734375,7.913883950042724,-3.0309283688545223,2.007757287749648
1782891274009832200,3.638832275390625,7.089183184927702,-2.8705080897957087,1.8934619232669472
1782891274019854000,3.64885400390625,6.161463943886757,-2.694907777261734,1.7466496060609817
1782891274029876200,3.658876220703125,5.215461442658305,-2.438370472228527,1.4469570499122142
1782891274039898000,3.668898193359375,4.573182945051789,-2.121848946353793,1.1055270004913211
1782891274049921300,3.67892138671875,3.976720442202687,-1.6906579619869588,0.7668675848275422
1782891274059942100,3.688942138671875,3.403041433569789,-1.068072006843984,0.274625919431448
1782891274069965000,3.698965087890625,2.804721320155263,-0.22257234545871615,-0.45364305467158555
1782891274079987200,3.7089873046875,1.9733681114137172,0.6288588979326188,-1.1717866483405233
1782891274090008300,3.71900830078125,0.9542132802128791,1.4440864629119634,-1.877064915217459
1782891274100031200,3.72903125,-0.2979787379682064,2.2743862170778213,-2.5567232954084873
1782891274110053400,3.739053466796875,-1.4693898309946059,3.417921899576485,-3.2184505898505447
1782891274120075300,3.7490751953125,-2.3610160143911836,4.588470530554652,-3.5592812120735644
1782891274130097200,3.75909716796875,-3.5477012489169835,4.962523038899898,-3.364686860734224
1782891274140119000,3.769119140625,-5.440944268736243,4.77157113571614,-3.389327380993962
1782891274150141200,3.77914111328125,-7.707426726952194,4.445910317835211,-3.3267496365278957
1782891274160163000,3.7891630859375,-9.931720148736238,4.4225098607644435,-3.0715427033156155
1782891274170185200,3.799185302734375,-11.786767001152038,4.725245145609975,-3.296474325251579
1782891274180207400,3.809207275390625,-13.252062840831279,5.1334255490064615,-5.1547541682392355
1782891274190229200,3.819229248046875,-14.592633399689197,5.129295317333936,-6.439521006810665
1782891274200251100,3.829251220703125,-14.521698161244391,5.458680416435003,-6.835175690633058
1782891274210273300,3.839273193359375,-12.613159372615813,5.232913512718677,-6.361247096040844
1782891274220295200,3.849295166015625,-9.277962810260057,4.567349416592717,-5.482181119009852
1782891274230317000,3.859317138671875,-6.017323183977603,3.611563772496581,-4.767392096465826
1782891274240339200,3.869339111328125,-3.491102578860521,2.759168067987263,-4.143309180763364
1782891274250361000,3.879361083984375,-1.949997757220268,2.277691834494471,-3.730798639208078
1782891274260383200,3.88938330078125,-1.269897770741582,2.1930682624369857,-3.164454211246967
1782891274270405400,3.8994052734375,-0.895820127955079,2.0757205246463415,-2.3913170446306466
1782891274280427300,3.90942724609375,-0.44582945831120013,1.5588228491604328,-1.8267559929549693
1782891274290449200,3.91944921875,0.029724107134342193,0.6084381873250008,-1.3874837012022734
1782891274300471000,3.929470947265625,0.1630319228619337,-0.6095756669223308,-1.0271417383015156
1782891274310493200,3.9394931640625,0.02355155597925186,-1.9336019182145594,-0.581290652680397
1782891274320515000,3.94951513671875,-0.3626367958396673,-3.1168133391499517,-0.02243570369184017
1782891274330537200,3.959537109375,-0.7819383127093315,-4.103268262276053,0.358381476482749
1782891274340559400,3.969559326171875,-1.1812760689586401,-5.192515451356768,1.0802554888516664
1782891274350581200,3.979581298828125,-1.2569032646119593,-6.56043812752068,2.1360066510438918
1782891274360603400,3.989603271484375,-0.6878074921160936,-7.800435850039124,3.282505421131849
1782891274370625300,3.999625244140625,0.6060258654862642,-8.356188156837224,4.3860459239810705
1782891274380647200,4.009647216796875,2.5861399440288544,-8.243369002386927,5.5269572493255135
1782891274390669300,4.01966943359375,4.859395257380604,-7.662358920213579,6.661129037281871
1782891274400691200,4.029691162109375,6.816668558561801,-7.315584294894337,7.497329686054587
1782891274410713000,4.039713134765625,8.393582944729923,-6.723866940745711,7.908511609354615
1782891274420735200,4.0497353515625,9.994723425137996,-5.456328884872794,8.751298650780319
1782891274430757400,4.05975732421875,10.673776532912253,-4.709878065130114,9.166196964254976
1782891274440779300,4.069779296875,10.517394715589285,-4.3682688597500325,8.856363537842034
1782891274450801400,4.079801513671875,9.99393081345558,-4.382243609088659,8.184396004414557
1782891274460823300,4.0898232421875,9.036155456846952,-4.709429152318835,7.504619843062758
1782891274470845200,4.09984521484375,7.240652095767855,-5.300032407745719,7.113350242456793
1782891274480867300,4.109867431640625,6.4731871295690535,-5.7121068959712975,6.25882950861752
1782891274490889200,4.11988916015625,5.538548902919888,-5.606572637832165,5.260123591205478
1782891274500911400,4.129911376953125,4.224027269814909,-5.44766393238008,3.70330565212667
1782891274510933200,4.139933349609375,2.692737155224383,-5.137042570459842,1.3522709335237741
1782891274520955400,4.149955322265625,1.3827075728416443,-4.3368332725226875,-1.1608587193518876
1782891274530977300,4.159977294921875,0.4745888120666146,-2.9728526119828222,-3.101692926907539
1782891274540999200,4.169999267578125,-0.04452624720782041,-1.204049626302719,-4.2471968407392495
1782891274551021300,4.180021240234375,-0.2184384605243802,0.6342781465023756,-5.179760599201917
1782891274561043200,4.190043212890625,-0.4250710401818156,2.3969828153073784,-6.545556200209259
1782891274571065000,4.200065185546875,-0.4136220099285245,5.122375162681937,-9.392253206306695
1782891274581087200,4.210087158203125,-0.7692018729940057,7.930385002988577,-11.9806119954288
1782891274591109400,4.220109375,-1.636947414587438,9.823947171759604,-12.98536420726776
1782891274601131300,4.23013134765625,-3.3977468342930077,10.852067399704456,-12.9399702373147
1782891274611153400,4.2401533203125,-5.405843729260564,10.865913554227351,-12.656762367498875
1782891274621175300,4.25017529296875,-7.452836464333534,11.22308331683278,-14.007774825394153
1782891274631197200,4.260197265625,-9.251480461525917,9.497947623443602,-13.416678233492373
1782891274641219300,4.27021923828125,-9.687889180541038,7.723366638883948,-12.144568047398328
1782891274651241200,4.2802412109375,-9.18487302315235,7.020919211518764,-10.906799691367148
1782891274661263000,4.29026318359375,-7.963587599888443,6.975451007285714,-9.330372796455025
1782891274671285200,4.30028515625,-6.592101093763112,7.3396116516917935,-7.78309951531291
1782891274681307400,4.310307373046875,-5.45406035541892,7.237233811756968,-6.422200454175472
1782891274691329300,4.320329345703125,-4.5071167739480735,6.652229691511392,-5.097387436419725
1782891274701351200,4.33035107421875,-3.5036741834029552,5.719742505416273,-4.012771414270997
1782891274711373300,4.340373291015625,-2.6002032484337687,4.422919318348169,-3.3456057281672953
1782891274721395200,4.350395263671875,-1.7998095338404179,3.4277404060184953,-2.6713392701476812
1782891274731418400,4.36041845703125,-1.1801689844995737,2.6231238130331036,-1.9716192219197748
1782891274741440300,4.370440185546875,-0.8701414968192577,1.897268622073531,-1.3046335685580968
1782891274751462100,4.380462158203125,-0.613376228249073,1.2305132703363895,-0.5717705446630716
1782891274761484300,4.390484375,-0.37841888686120506,0.5776420670449733,0.12298983533084391
1782891274771506400,4.40050634765625,-0.21324527579545974,-0.2544119834423065,0.9133709822148084
1782891274781528300,4.4105283203125,-0.07293079617619513,-1.2866104206115008,1.9676509028106928
1782891274791550200,4.42055029296875,0.1986117702871561,-2.3695213924080134,3.0991075865894553
1782891274801572400,4.430572265625,0.47253217179775237,-3.5052199515402314,4.257890668711066
1782891274811594200,4.44059423828125,0.6638686903849244,-4.555815630665421,5.283665794834494
1782891274821616000,4.4506162109375,0.8444304247185588,-5.592815915158391,6.153740071636438
1782891274831638300,4.46063818359375,1.1409241848260163,-6.34178427067995,6.468349626410007
1782891274841660200,4.47066015625,1.618297366914153,-6.599406448340416,6.397233186179399
1782891274851682300,4.480682373046875,2.145279214040935,-6.434905621969699,6.370645038983225
1782891274861704400,4.490704345703125,2.7096605252355337,-5.945183245918154,6.490390777826309
1782891274871726300,4.500726318359375,3.2946161301642656,-5.399448475265503,6.64641603679657
1782891274881748200,4.510748291015625,4.078614882534742,-5.022209153577685,6.773405170896649
1782891274891770400,4.520770263671875,4.861232994201779,-4.741541908155382,6.871048968046903
1782891274901792300,4.530792236328125,5.5101072368115185,-4.5459231822043655,6.970076913031935
1782891274911814100,4.540814208984375,5.946658579167723,-4.367412242920697,6.993391737645864
1782891274921836300,4.550836181640625,6.202237268301844,-4.172618569616973,6.850711113417148
1782891274931858200,4.560858154296875,6.212171217817068,-4.029482018314302,6.563144463869929
1782891274941880300,4.57088037109375,5.983918927025795,-3.950011006714403,6.149643157711624
1782891274951902200,4.580902099609375,5.7329030157625676,-3.8666359734132882,5.721392610710859
1782891274961924400,4.59092431640625,5.302059529659152,-3.6598625239804385,5.206050055712462
1782891274971946200,4.6009462890625,4.729886249414086,-3.3181969122380015,4.792110942658781
1782891274981968100,4.610968017578125,4.160322274884582,-2.8582325455904005,4.3638031125128265
1782891274991990300,4.620990234375,3.42495340564847,-2.2855171212926506,3.530724979674816
1782891275002012200,4.63101220703125,2.551789346137643,-1.5276257468640804,2.4113708216220138
1782891275012034300,4.641034423828125,1.886069182667136,-0.2905263761356473,1.1800976728290318
1782891275022056400,4.651056396484375,1.644437185820937,0.9806813081607222,0.0936246246367693
1782891275032078300,4.661078369140625,1.831961744904518,2.158522434234619,-0.8964555032491683
1782891275042100200,4.671100341796875,1.9247230307102203,3.269929432675242,-1.8932669852167368
1782891275052122400,4.681122314453125,1.5044745883792638,4.196085077661276,-2.8728391630917787
1782891275062144300,4.691144287109375,0.38578386267125603,4.657961999931931,-3.613833470994234
1782891275072166100,4.701166259765625,-0.8119055809497833,5.078327346640825,-4.33007795304358
1782891275082188300,4.711188232421875,-1.7481792998462915,5.573506234532594,-5.178378204932809
1782891275092210200,4.721210205078125,-2.7503981938153506,6.19264117243886,-6.493219279250503
1782891275102232300,4.731232421875,-4.110017736536264,6.654159782791138,-7.922271839159727
1782891275112254500,4.74125439453125,-5.647709534862638,6.639851855975389,-8.753066829496621
1782891275122276400,4.7512763671875,-7.036753324988484,6.247516671964526,-8.96704275765419
1782891275132298200,4.76129833984375,-7.9539500029712915,5.860545060813426,-8.598245101097225
1782891275142320000,4.771320068359375,-8.600175192376971,5.548789726427197,-7.761150133833289
1782891275152342300,4.78134228515625,-9.261130917924643,5.347140780401229,-6.818653010377288
1782891275162364200,4.7913642578125,-9.434453933176398,5.1042310187041755,-5.89375408745408
1782891275172386000,4.801385986328125,-8.817974478214978,4.671623153276741,-4.991179224541783
1782891275182408400,4.811408447265625,-7.565046546974778,4.121300470311939,-4.186649140796065
1782891275192430300,4.821430419921875,-5.983806114301085,3.5049686071276662,-3.3514199674040075
1782891275202452200,4.8314521484375,-4.402935683983564,2.9197102198600766,-2.4453122541904446
1782891275212474400,4.841474365234375,-3.2080636358708143,2.462809332436323,-1.763100390124321
1782891275222496300,4.851496337890625,-2.2647172021090984,2.0454124801442024,-1.317024263575673
1782891275232518100,4.86151806640625,-1.4873253006577491,1.4364210428506134,-0.9138619806021452
1782891275242540300,4.871540283203125,-0.7000035413444042,0.48504444736838337,-0.28120588234364985
1782891275252562200,4.881562255859375,0.13626725005507467,-0.7467159004196524,0.511013585883379
1782891275262584300,4.891584228515625,0.6502765106230974,-2.045803233027458,1.294194592130184
1782891275272606500,4.9016064453125,0.9335200362741947,-3.3390289801254864,2.07625506991446
1782891275282628400,4.91162841796875,1.312445703613758,-4.605111576493084,3.0906781964182852
1782891275292650200,4.921650146484375,1.9614438648641108,-5.664776404997706,4.103038545173407
1782891275302672400,4.93167236328125,2.7410955279409883,-6.375146442055702,4.918690326914191
1782891275312694300,4.9416943359375,3.449429090735316,-6.580705255001783,5.436003889724612
1782891275322716200,4.951716064453125,4.037340038338304,-6.360455068880319,5.80535275042355
1782891275332738300,4.96173828125,4.631027815777063,-5.891469775909185,6.000054069268703
1782891275342760400,4.971760498046875,5.234855294436216,-5.630280845677852,6.002619535842538
1782891275352782600,4.981782470703125,5.837261800381541,-5.521643360826372,5.86176963417232
1782891275362804500,4.991804443359375,6.5201090397417545,-5.447959115934371,5.658545986175537
1782891275372826400,5.001826416015625,7.143491113698482,-5.360771830868721,5.517521312460303
1782891275382848500,5.0118486328125,7.595165206384658,-5.26317771807909,5.419904403316974
1782891275392870400,5.021870361328125,7.894168026703595,-5.162117975005507,5.364536151838302
1782891275402892300,5.031892333984375,7.871402068144082,-5.188455946832895,5.204809115740656
1782891275412914200,5.0419140625,7.3297998672515146,-5.3343280605793,4.8433711742967365
1782891275422936300,5.051936279296875,6.383031642347574,-5.484333913129568,4.379399910095334
1782891275432958500,5.06195849609375,5.237829926332831,-5.476732790476084,4.049779833194613
1782891275442980400,5.07198046875,4.141697069391608,-5.319642532622814,3.7719565790265794
1782891275453002500,5.08200244140625,3.4125416678428646,-5.065639714503288,3.486024837204814
1782891275463024400,5.0920244140625,2.7376901034116745,-4.763002629335224,2.967472672510147
1782891275473046300,5.10204638671875,2.1162398743003608,-4.270483023780584,2.1199328835994002
1782891275483068400,5.112068359375,1.5907377443373203,-3.4674551612913604,1.2672867114603519
1782891275493090300,5.12209033203125,1.236204175454378,-2.2273297207400202,0.4402250624328851
1782891275503112200,5.1321123046875,1.0535369932740926,-0.7344932554453611,-0.38538288065493104
1782891275513134600,5.142134521484375,0.707365010023117,0.6614753655076027,-1.362894034346938
1782891275523156500,5.152156494140625,-0.24434184032678602,1.7655045286566018,-2.6592081028491257
1782891275533178400,5.162178466796875,-1.715769899150729,2.923320519311726,-4.656847901210188
1782891275543200500,5.172200439453125,-3.29119433902204,4.37073320403695,-6.938415115833282
1782891275553222400,5.182222412109375,-4.985276137977838,6.049028820317983,-8.621280524247885
1782891275563244300,5.192244384765625,-6.655908672285079,7.769869446861743,-9.896668709099291
1782891275573266400,5.202266357421875,-7.799582448080182,9.199154061961174,-11.306297022092341
1782891275583288300,5.212288330078125,-8.85159734635353,9.459557979294658,-12.482322330915927
1782891275593310500,5.222310546875,-10.326866298514604,8.208406994599104,-13.088829257917403
1782891275603332400,5.232332275390625,-11.603874778044224,6.79664108505547,-12.673706488037109
1782891275613354500,5.2423544921875,-12.106135733151435,5.99056727899909,-10.979779587382078
1782891275623376400,5.25237646484375,-11.794211471939086,5.77514115203321,-8.992111732459067
1782891275633398300,5.262398193359375,-10.940772103595734,5.922938680884242,-7.308616209447384
1782891275643420400,5.27242041015625,-9.926461789816617,6.103924778109788,-5.71294159322977
1782891275653442300,5.2824423828125,-8.990140140125154,5.842246018534898,-4.253139674791694
1782891275663464200,5.292464111328125,-7.940069946178793,5.09883237453103,-2.966929651674628
1782891275673486600,5.302486572265625,-6.475944903844595,4.2069314658463,-1.8438766391038894
1782891275683508500,5.312508544921875,-4.807528876543045,3.3456481060042975,-0.9371662838220596
1782891275693530400,5.3225302734375,-3.1330852595150467,2.5149311493396755,-0.27027064683139324
1782891275703552500,5.332552490234375,-1.5246341638326644,1.6037807657837866,0.18502105183005332
1782891275713574400,5.342574462890625,-0.17050269713401794,0.8484916828081012,0.33631752871274945
1782891275723596300,5.35259619140625,1.0229998161911964,0.027650515730679035,0.5662818841189146
1782891275733618400,5.362618408203125,2.0760499027311803,-0.9621960956603288,0.913086320054531
1782891275743640300,5.372640380859375,3.343748117601871,-1.9713599864616989,1.5209662889748812
1782891275753662500,5.382662353515625,4.399354902887344,-2.729265389415622,2.3815911849081517
1782891275763684600,5.3926845703125,4.593422015482187,-3.27863384039551,3.2783138146609065
1782891275773706500,5.40270654296875,4.2193724297463895,-3.4862902101427315,3.8904298137158153
1782891275783728400,5.412728271484375,3.990941859778762,-3.4850074768558144,4.442372791358828
1782891275793750300,5.422750244140625,3.9909436133444305,-3.5811461301401257,4.737276359665394
1782891275803772400,5.4327724609375,4.00041871317625,-3.673724168333411,4.7590819487601514
1782891275813794300,5.442794189453125,4.201980565440654,-3.6859462287858125,4.5888095532506705
1782891275823816200,5.452816162109375,4.52291990775764,-3.724758482261002,4.228033875107765
1782891275833838300,5.46283837890625,4.782647533264756,-3.730634388557076,3.7214132634863257
1782891275843860500,5.472860595703125,5.114183088397979,-3.669926237355172,3.2115769046887754
1782891275853882400,5.48288232421875,5.686859641990066,-3.5890742927908894,2.792244408158958
1782891275863904500,5.492904541015625,6.286375102669,-3.4463471990719436,2.5869869162470103
1782891275873926400,5.502926513671875,6.988821945512294,-3.1731711861878633,2.6076342752173542
1782891275883948300,5.5129482421875,7.759897503423691,-2.702935600894689,2.9214857051
1782891275893970400,5.522970458984375,8.543693426698447,-2.2106137098692358,3.274327375373244
1782891275903992300,5.532992431640625,9.267100639984012,-1.7813573468267916,3.8289533084899183
1782891275914014500,5.543014404296875,9.940736983406543,-1.3972395176716148,4.373966486869752
1782891275924036600,5.55303662109375,10.213559068286418,-1.0182182810030878,4.714724920639395
1782891275934058500,5.56305859375,10.054290881872177,-0.6493579344734549,4.947209149911999
1782891275944080400,5.573080322265625,9.418736724084615,-0.34050241318196056,5.000908591395616
1782891275954102300,5.583102294921875,8.842290588825941,-0.07560965999662876,4.6553971178799864
1782891275964124400,5.59312451171875,8.75950475358963,0.2768877268835902,3.9855420465618367
1782891275974146300,5.603146240234375,9.05902370673716,0.8747370079159736,3.224194686460495
1782891275984168200,5.613168212890625,9.398553183233737,1.5646172146528958,2.7202538154423235
1782891275994190300,5.6231904296875,9.735358787724374,2.453906187273562,2.351296584409475
1782891276004212500,5.63321240234375,9.84206618129611,3.555397064116597,1.8808751211553811
1782891276014234400,5.643234375,9.524178043243289,4.922224930781126,0.9807008896440267
1782891276024256500,5.653256591796875,8.686476926779747,6.111723469161987,-0.08887187715172767
1782891276034278400,5.6632783203125,7.211652211254835,7.354035898363589,-1.5814070214122533
1782891276044300300,5.67330029296875,5.25163341075778,8.715381534224749,-3.2436639415621755
1782891276054322400,5.683322509765625,2.4653484955251215,9.966298125642538,-4.927762106642127
1782891276064344300,5.69334423828125,-1.2155506790041923,10.99551374760866,-6.459812099689245
1782891276074366200,5.7033662109375,-5.507340110185742,11.983863106179237,-7.490315423378348
1782891276084388600,5.713388671875,-9.549812835237383,12.575296382689475,-8.266119763377308
1782891276094410500,5.723410400390625,-12.431807949209212,12.479688475281,-9.782655376428366
1782891276104432400,5.733432373046875,-13.198638709157704,11.913858426582813,-11.57637185409069
1782891276114454500,5.74345458984375,-12.720282361251115,11.272144577121734,-12.49602352401018
1782891276124476400,5.753476318359375,-12.523695959311723,9.661295188125967,-13.524814783084391
1782891276134498300,5.763498291015625,-11.980019290232658,8.2735560508579,-13.430829508441686
1782891276144520200,5.773520263671875,-10.184057079470158,7.1332631496727466,-11.940748771595954
1782891276154542300,5.783542236328125,-7.47309599303007,5.856584340488911,-10.01657285337448
1782891276164564500,5.793564453125,-5.369674099248647,4.7834500818192955,-8.213957029941678
1782891276174586400,5.80358642578125,-4.378234081186354,3.7777006756365297,-6.743008863589167
1782891276184608500,5.8136083984375,-4.450813287445903,2.3866899693518877,-5.4868175466388465
1782891276194630400,5.82363037109375,-4.966982356396318,0.5123860432803631,-4.406585438662767
1782891276204652300,5.83365234375,-5.3325803401291365,-1.56792911567986,-3.3990661001980302
1782891276214674400,5.84367431640625,-5.347209753984212,-3.6273271588176486,-2.7798750481903554
1782891276224696300,5.8536962890625,-5.157616571933031,-5.576060595190524,-2.2079776622772216
1782891276234718200,5.86371826171875,-4.792438859438896,-7.484892229285836,-1.7324381253570318
1782891276244740600,5.87374072265625,-4.307730804418028,-9.047118164888024,-1.0939297939389943
1782891276254762500,5.883762451171875,-3.887785144425928,-10.521602104151249,-0.3549327973335981
1782891276264784400,5.893784423828125,-3.197834795062244,-11.755025124454498,0.0643792409300804
1782891276274806500,5.903806640625,-2.0778800407677886,-12.40402445474863,0.26623218509554863
1782891276284828400,5.913828369140625,-0.8816185841232538,-12.683837421429157,0.49017830312550065
1782891276294851300,5.923851318359375,0.42794104266017674,-12.509897735583781,0.6893722572147846
1782891276304872400,5.93387255859375,1.5177394358828662,-11.877716269099711,0.9706336691379547
1782891276314894300,5.943894287109375,2.2573478423848745,-11.046320390260219,1.3952397221565245
1782891276324916700,5.953916748046875,2.702975348383188,-10.17480059082508,2.037722217902541
1782891276334940000,5.96393994140625,2.9092034388929604,-9.302952290087937,2.8817186351180073
1782891276344961800,5.9739619140625,2.9833000639781355,-8.39377759051919,3.7415398134529587
1782891276354983700,5.983983642578125,3.14975290119946,-7.5761045320838685,4.553706091165543
1782891276365006000,5.994006103515625,3.486565227691829,-6.963848247775435,5.325252189198136
1782891276375028000,6.004028076171875,4.003466702570021,-6.4807385678619145,6.057679159763455
1782891276385049900,6.0140498046875,4.591427042272687,-6.19786153743565,6.725396050009131
1782891276395072000,6.024072021484375,5.155279653418064,-6.058417995432019,7.189220599216222
1782891276405094000,6.034093994140625,5.3664966382563115,-5.918399868410825,7.369220608013868
1782891276415115800,6.04411572265625,5.085728562808036,-5.687313815498352,7.127139698356389
1782891276425138000,6.054137939453125,4.696477024026215,-5.062402047756314,6.366693671008944
1782891276435159800,6.064159912109375,3.9903132064864035,-4.03313089621067,5.185452673363685
1782891276445182000,6.074181884765625,3.301705796164274,-2.6148154188930985,3.7280432030200954
1782891276455204000,6.0842041015625,2.6181930786326526,-0.9084037151962518,2.1268091991096734
1782891276465226000,6.09422607421875,1.8725117819577455,1.0539695394724606,0.7000047103881836
1782891276475247900,6.104247802734375,1.0014178067192434,2.95933554328382,-0.6269546717464923
1782891276485269800,6.114269775390625,0.16720891628563403,4.982248899111151,-2.197178620365262
1782891276495292000,6.1242919921875,-0.7344597915671766,7.491257088142633,-4.477829889187216
1782891276505313800,6.134313720703125,-1.741027674525976,10.210952100658416,-7.362100546875595
1782891276515335700,6.144335693359375,-2.6692209628194568,12.066471246761083,-9.68441653599441
1782891276525358000,6.154358154296875,-3.8064573990434405,12.513729861092568,-11.291293514227867
1782891276535380000,6.1643798828125,-4.571718133196234,12.801543763399124,-13.518560398864745
1782891276545401900,6.17440185546875,-6.27190292520225,11.516827778232097,-13.86641171350479
1782891276555424000,6.184424072265625,-7.543719681307673,10.651063181322812,-13.456306479525566
1782891276565446000,6.19444580078125,-8.208219947594404,10.460919379651546,-12.719591456377506
1782891276575467800,6.2044677734375,-8.306632391029597,9.948520476889609,-11.655962692677974
1782891276585490000,6.214489990234375,-8.120998760259152,9.565177577629685,-10.556183588188887
1782891276595511800,6.22451171875,-7.281699560949206,9.1288121132344,-8.952014115348458
1782891276605534000,6.234533935546875,-5.981670271316171,8.612740659439563,-7.089845448228717
1782891276615556000,6.24455615234375,-4.461237066304683,7.864322339016199,-5.631983557942509
1782891276625578000,6.254577880859375,-2.970816137719154,6.911238939616084,-4.660393026471137
1782891276635600000,6.264599853515625,-1.457602216436714,5.793238534259796,-4.041149367493391
1782891276645621800,6.274621826171875,0.10690919975414871,4.635687624281645,-3.405972810846567
1782891276655644000,6.284643798828125,1.2897826209068297,3.2812662347257135,-2.5290485220193863
1782891276665665800,6.294665771484375,1.9643970155812798,1.82405024112761,-1.5214724849313497
1782891276675687700,6.304687744140625,2.4448078117996452,0.29088965649008747,-0.2718669761121273
1782891276685710000,6.3147099609375,2.8313126822218297,-1.2572814502745866,1.0886088911771774
1782891276695732000,6.32473193359375,2.9653885597124696,-2.7738018657565116,2.4487200168073175
1782891276705753900,6.33475390625,2.984285860145092,-4.188308598440885,3.6597622784763573
1782891276715776000,6.34477587890625,3.103632370537519,-5.393675152561068,4.751033082339167
1782891276725798000,6.3547978515625,3.226225900027156,-6.258819571745395,5.740453869533538
1782891276735819800,6.36481982421875,3.214723678281903,-6.935830360037088,6.726558079525828
1782891276745842000,6.374842041015625,3.1394843129023906,-7.6253721285998814,7.446354116576909
1782891276755863800,6.38486376953125,3.197854376545548,-8.152844097331165,7.803843612655997
1782891276765886000,6.394885986328125,3.3609006201937794,-8.50498755620718,8.012296977999807
1782891276775908000,6.404908203125,3.622973932044208,-8.48044406658113,8.02301243328154
1782891276785930000,6.414929931640625,3.9733366449832914,-7.934455613428354,7.895847942614555
1782891276795951900,6.424951904296875,4.479181303796172,-7.370417124322056,7.729686489555239
1782891276805974000,6.43497412109375,5.144921925532818,-7.144705750185251,7.660233598622679
1782891276815996000,6.444995849609375,5.959506954824924,-6.913424466961622,7.683812627130746
1782891276826017800,6.455017822265625,6.544314091193676,-6.614848347622155,7.651554617604613
1782891276836039700,6.465039794921875,6.8451827053844925,-6.386277492401003,7.570611779886484
1782891276846061800,6.475061767578125,6.8888114192306995,-6.065849606737494,7.496940978997945
1782891276856084000,6.485083984375,6.620667847555875,-5.823204633456468,7.361843357244133
1782891276866105900,6.49510595703125,6.113618489128351,-5.501547498258948,7.134701073521375
1782891276876128000,6.5051279296875,5.470298958036303,-5.217978978437185,6.705356301543116
1782891276886150000,6.51514990234375,4.7900680386543275,-4.923692080724239,6.195283211380243
1782891276896171800,6.525171875,4.151750261372327,-4.4459734461992975,5.516244716653228
1782891276906194000,6.53519384765625,3.4782816757321355,-3.5708564990550276,4.5080426566213365
1782891276916215800,6.5452158203125,2.8095018324300645,-2.328413136950135,3.2885528846025465
1782891276926237700,6.55523779296875,2.2253145815253257,-0.6804536222219467,1.629095824304223
1782891276936260000,6.565260009765625,1.8003858724236488,1.524219153290987,-0.06495265690386295
1782891276946282000,6.575281982421875,1.6297253543794155,3.8894355419814586,-1.276328096050024
1782891276956304000,6.585303955078125,1.8472239037051796,6.026597208279371,-2.2962311152696606
1782891276966326000,6.595325927734375,2.13900320251137,7.917993138927221,-3.6108354582220312
1782891276976348000,6.605347900390625,2.0372306349933145,9.625909986490012,-4.90990671647787
1782891276986369800,6.615369873046875,1.5244275353446601,10.84829372638464,-6.038506257259845
1782891276996392000,6.625391845703125,0.633764351761341,11.62603751001358,-7.089303596436977
1782891277006413800,6.635413818359375,-0.7824180590502917,11.92678805078268,-8.278119413250684
1782891277016436000,6.64543603515625,-2.7042466834932566,11.47347963489294,-9.38816155307889
1782891277026457900,6.655457763671875,-5.075263867416978,10.867636724758148,-10.224124885964393
1782891277036480000,6.66547998046875,-7.2020052619874475,10.449539907503127,-10.763145253670215
1782891277046502000,6.675501953125,-8.742450742936134,10.06799207496643,-11.025738205480575
1782891277056523800,6.685523681640625,-9.628016603380441,9.486991345143318,-10.888080962371825
1782891277066546000,6.6955458984375,-9.755501412042975,8.767093601283431,-10.075876106214523
1782891277076567800,6.70556787109375,-9.21799670959711,8.018731979483366,-8.692238559046388
1782891277086589700,6.715589599609375,-8.15822579036951,7.121815872985124,-7.1952791686028235
1782891277096612000,6.725612060546875,-6.891692527624964,6.158719613614678,-5.923879761126637
1782891277106634000,6.735634033203125,-5.712381621259451,5.170101959496736,-4.883133275842666
1782891277116655900,6.74565576171875,-4.280498221838474,4.15506566953063,-3.9641362704396244
1782891277126678000,6.755677978515625,-2.867681926459074,3.0855075157821177,-3.052162295541167
1782891277136700000,6.765699951171875,-1.717638615632057,1.7686919265210628,-2.033380389305949
1782891277146721800,6.7757216796875,-0.6538733660712838,0.21800269945561884,-0.9925345353007315
1782891277156744000,6.785743896484375,0.27878625398129225,-1.304528939139843,-0.06265256326794624
1782891277166765800,6.795765869140625,0.8393252105340361,-2.944986699935794,0.8471966745615005
1782891277176788000,6.8057880859375,1.0045154804736376,-4.615512266737222,1.578403163421154
1782891277186809900,6.815809814453125,1.0010971964627504,-6.119682319211959,1.9881945091456175
1782891277196832000,6.82583203125,0.8631260650992393,-7.43275696837902,2.1999112601995465
1782891277206854000,6.83585400390625,0.8463947105288505,-8.458040511593222,2.514265378907323
1782891277216875800,6.845875732421875,0.8902204082518815,-9.18403598780632,2.943981322285533
1782891277226898000,6.85589794921875,0.9878583601832389,-9.695655722889304,3.319000045314431
1782891277236919800,6.865919921875,1.1390195202484725,-9.997695134425163,3.5904987726360558
1782891277246941700,6.875941650390625,1.4344865676566958,-9.854612359136343,3.5778976497381922
1782891277256964000,6.885964111328125,1.830068770764768,-9.219100871446727,3.4833658471286295
1782891277266986000,6.895986083984375,2.1868375513538716,-8.382226268935202,3.5653012030154465
1782891277277008000,6.9060078125,2.3254618859291076,-7.572647669628262,3.617736908173561
1782891277287030000,6.916030029296875,2.2425287511765957,-6.822011088633537,3.510387125045061
1782891277297052000,6.926052001953125,2.257756130924821,-6.160964762192965,3.4069413636177774
1782891277307073800,6.93607373046875,2.2124007394164797,-5.587922882419824,3.1911043177634477
1782891277317096000,6.946095947265625,1.9524743764668702,-5.040211843258142,2.9485470227658745
1782891277327118000,6.9561181640625,1.4300222817242145,-4.50010952553451,2.6122160500496623
1782891277337140000,6.966139892578125,0.9342892670810222,-3.87053970285356,2.3154057713389395
1782891277347162000,6.976162109375,0.552763646376133,-3.1547149075210092,1.9313339732825754
1782891277357184300,6.986184326171875,0.42209553150236606,-2.345984157215059,1.5395722052454948
1782891277367206100,6.9962060546875,0.43208617964088913,-1.3803177550956607,0.8324147004932164
1782891277377228000,7.00622802734375,0.08876666321158408,-0.43333676422387357,-0.3109633072257042
1782891277387250000,7.01625,-0.4451040666460991,0.5174009488329291,-1.5011866527497768
1782891277397272000,7.02627197265625,-0.632294863730669,1.4133356430783868,-2.481785835584998
1782891277407294000,7.0362939453125,-0.9102689245462418,2.09402438923046,-3.6098020235210657
1782891277417315800,7.04631591796875,-1.7611656226694583,2.6749884403049946,-5.05869793254137
1782891277427338200,7.056338134765625,-3.289374137857556,3.369065806470811,-6.209598152458668
1782891277437360000,7.066360107421875,-5.377324906262755,4.356676913894713,-6.625186201763153
1782891277447382000,7.076382080078125,-7.835885349082947,5.6303784608334295,-6.861639334666728
1782891277457404200,7.086404052734375,-9.891015213382243,7.0530959725022315,-7.326294489479064
1782891277467426000,7.096426025390625,-10.749404313087462,7.84479287815988,-7.900627578106522
1782891277477448000,7.106447998046875,-10.78413660377264,7.688322213509679,-8.410238895976542
1782891277487470000,7.116469970703125,-10.50190605455637,7.206528876891732,-8.425770227107405
1782891277497492000,7.126491943359375,-10.273898093914985,7.277009941828251,-7.595709980785847
1782891277507514000,7.13651416015625,-9.998479562801123,7.521732890427113,-6.63867579793334
1782891277517536300,7.146536376953125,-9.457880985993146,7.415276256746053,-5.952283433312178
1782891277527558100,7.15655810546875,-8.685755626767873,6.9488330494731665,-5.542607822921871
1782891277537580000,7.166580078125,-7.692213375729322,6.501877802002429,-4.879463355158269
1782891277547602200,7.176602294921875,-6.314098975896835,6.003776889184117,-3.8691047016143796
1782891277557624000,7.1866240234375,-4.67633586101234,5.383360094773769,-2.927739797058701
1782891277567646000,7.19664599609375,-2.692988207376003,4.6310658096998925,-2.1156746416330336
1782891277577667800,7.206667724609375,-0.46021980271339413,3.9717119663909077,-1.5237088656812905
1782891277587690200,7.216690185546875,1.9208768766760824,3.2396061906039715,-0.9314695334851741
1782891277597712100,7.226712158203125,4.41922455548346,2.5152467911601066,-0.2641433961227536
1782891277607734000,7.236734130859375,6.740498342072963,1.82198950920552,0.3894046835169196
1782891277617756200,7.246756103515625,8.533208857563137,1.1567636320579797,0.9172364254713058
1782891277627778000,7.256778076171875,9.751532508412003,0.5609389156557619,1.3382035374656318
1782891277637800000,7.266800048828125,10.181230331611633,-0.019442732420936224,1.661343896958232
1782891277647822000,7.276822021484375,9.95406174440384,-0.5304223429694771,1.939657126600295
1782891277657844000,7.286843994140625,9.513570139989257,-0.7479907426610588,2.3328473200052975
1782891277667866000,7.2968662109375,9.083048725447059,-0.7459194893449544,2.6845599862486123
1782891277677888300,7.30688818359375,8.730640478155017,-0.6985827147610485,3.0641070003569126
1782891277687910100,7.31691015625,8.33252846430838,-0.48692777689695355,3.1505010892182588
1782891277697932000,7.32693212890625,7.970015002587437,-0.21546770108528435,3.013422522780299
1782891277707954200,7.3369541015625,7.782760492616892,-0.047399245360866184,2.5981898627847433
1782891277717976000,7.34697607421875,7.064428682899475,0.06356558645963668,1.9815449881285427
1782891277727998000,7.356998046875,6.258123990696668,0.15259016995504499,1.3904350983537732
1782891277738019800,7.367019775390625,5.865849596962333,0.1944315619930625,0.9846902515411377
1782891277748042000,7.3770419921875,5.7221109881132834,0.20624387260079383,0.8837082498788833
1782891277758064000,7.387064208984375,5.815125371897221,0.19778408729135988,0.8791716293625533
1782891277768086000,7.3970859375,5.6376382227033375,0.1453431214362383,0.699525548569113
1782891277778108200,7.407108154296875,5.157631769502163,0.11097484175786375,0.293381327175349
1782891277788130000,7.417130126953125,4.349053287148475,0.022743016075342893,-0.13765344371646643
1782891277798152000,7.42715185546875,3.7653824613332745,-0.031138357846438883,-0.2636154267258942
1782891277808174000,7.437174072265625,3.775632052668929,-0.029201398434489965,-0.21791692086830733
1782891277818196000,7.447196044921875,4.185330459412932,-0.18013415657132864,-0.30138518541082737
1782891277828217900,7.4572177734375,4.651145890176296,-0.4788432546406984,-0.5594003079116344
1782891277838240300,7.467240234375,4.678136188432574,-0.7568889193877577,-0.9318975496388971
1782891277848262100,7.47726220703125,4.12451738653183,-0.9089525812506675,-1.2342688234776258
1782891277858284000,7.487283935546875,2.8571856668859716,-0.9774436414137482,-1.5701637428641317
1782891277868306200,7.49730615234375,1.2521306433826684,-1.1460922351136802,-1.6980144622296094
1782891277878328000,7.507328125,-0.14383154782950877,-1.3105951073110103,-1.521666984590143
1782891277888350000,7.517349853515625,-1.0678010809481144,-1.3569824722155928,-0.9602214345864951
1782891277898372000,7.5273720703125,-1.3774837007135152,-1.3088900569587945,-0.11281287083998322
1782891277908394000,7.53739404296875,-1.3711363775134087,-0.6622983723282814,-0.04643047339394688
1782891277918416100,7.547416015625,-1.4940624999582766,-0.7784875877335667,-0.18315876508951187
1782891277928438000,7.55743798828125,-1.755945842194557,-1.234615152697265,-0.5481964845910668
1782891277938460200,7.567460205078125,-2.228167048346996,-1.2767629803359508,-1.167032293420285
1782891277948482000,7.57748193359375,-3.291254544776678,-1.2214002818152307,-1.2493074026554822
1782891277958504000,7.58750390625,-5.205294853430986,-1.0007090739279985,-1.297808983235061
1782891277968526000,7.597526123046875,-7.9754276752859345,-0.4309633130908012,-1.6634478835001587
1782891277978548000,7.6075478515625,-10.997711549913882,0.032465807057917115,-1.5971715767771004
1782891277988569900,7.61756982421875,-12.240304549622534,1.152820082063973,-2.0020095378778873
1782891277998592300,7.62759228515625,-11.63105270782709,1.0927467216342688,-1.7382582098126411
1782891278008614100,7.6376142578125,-8.938962326073646,0.6975643314987421,-1.2839875247620045
1782891278018636000,7.647635986328125,-5.822295701918006,0.10313917969614267,-0.7199947744935751
1782891278028658200,7.657658203125,-3.059754650366306,-0.053095922632515426,-0.5562624482773244
1782891278038680000,7.66768017578125,-1.0991384684979915,-0.36758535815775395,-0.23565905991643665
1782891278048702000,7.677701904296875,0.07094517531692981,-0.5261196773394942,-0.08974033054932952
1782891278058724000,7.68772412109375,0.7126917580038309,-0.6532657555669545,-0.10920447108447551
1782891278068746000,7.69774609375,0.9923457347303628,-0.7397901928097009,-0.1513204422801733
1782891278078768000,7.70776806640625,0.8788619788914919,-0.7498147432178258,-0.0995364790290594
1782891278088790300,7.717790283203125,0.5562035576969385,-0.6728872786208987,0.018154373110830783
1782891278098812200,7.727812255859375,0.2107452756732702,-0.5497410836845636,0.17096315425261854
1782891278108834000,7.737833984375,0.12823416572511195,-0.3076818013370037,0.21675065356791018
1782891278118856000,7.74785595703125,0.24223580795824526,-0.312869725368917,0.7002614616282283
1782891278128878000,7.757878173828125,0.6125228262901306,-0.261518600577116,0.9249484611533582
1782891278138900000,7.76789990234375,1.2025170099079607,0.03940744288936257,0.9631788230873644
1782891278148921900,7.777921875,1.6753595628291367,0.1817636574693024,1.1665512319050728
1782891278158944300,7.7879443359375,2.2377783417791126,0.3538622454926371,1.0329020553939043
1782891278168966100,7.797966064453125,2.7580338032603264,0.5069064428254961,0.9965725586451589
1782891278178988000,7.807988037109375,3.2879613484501835,0.7083261101402342,0.9643846917457878
1782891278189010200,7.81801025390625,3.8440520934224125,0.9237469764091074,0.9368595559604466
1782891278199032000,7.828031982421875,4.534768166461586,1.1323694147095082,0.8290914012894034
1782891278209054000,7.838053955078125,5.462138447934389,1.2346630834922194,0.9130157390363514
1782891278219076000,7.848076171875,6.264845407906174,1.330501000264287,1.1382679712288082
1782891278229098000,7.858097900390625,6.85993954501152,1.6935747262164949,1.301613636215031
1782891278239120100,7.8681201171875,7.5520508718013755,1.896979575999081,1.734094514261931
1782891278249142300,7.878142333984375,7.9288687532067295,1.9938728470429776,2.062133313320577
1782891278259164200,7.8881640625,7.685920413064956,2.296238421793282,1.8281586993597447
1782891278269186000,7.89818603515625,7.244573068603873,2.4206635506242513,1.8069760644689201
1782891278279208000,7.9082080078125,7.179113631221652,1.94972390871495,2.129059023863077
1782891278289230000,7.91822998046875,7.07984252513051,1.7135963545039294,1.7243595944501457
1782891278299252000,7.928251953125,6.949692881172895,1.4000471224382518,1.2753878925904631
1782891278309273900,7.93827392578125,6.860946091705561,0.9587672902554273,0.9078770609736442
1782891278319296000,7.9482958984375,6.5152393878787755,0.504293922239542,0.5827531264483928
1782891278329318100,7.958318115234375,6.039435062542557,0.12752397162914275,0.30108371824622154
1782891278339340300,7.96834033203125,5.663638925400376,-0.1943918145045638,0.24732524005174636
1782891278349362200,7.978362060546875,4.9728568013876675,-0.691745708347857,0.2016476308517158
1782891278359384000,7.988384033203125,3.720009534168243,-1.2194754512324928,0.02618979552835226
1782891278369406200,7.99840625,2.1375439436137675,-1.236228725373745,-0.1250824236959219
1782891278379428000,8.008427978515625,0.270636557534337,-0.9215575035408139,-0.01441591723486781
1782891278389450000,8.018449951171876,-1.7293202855974434,-0.6473848808348178,0.2914014054045081
1782891278399472000,8.02847216796875,-3.824840027952194,-0.6817857476085424,0.3383243384905159
1782891278409494300,8.038494384765626,-5.45933917260468,-0.6536743363678454,-0.2675817000083625
1782891278419516200,8.04851611328125,-6.296131357529759,-0.5418427316501736,-1.7435040015116332
1782891278429538300,8.058538330078125,-7.53926737807393,-0.9474135370701551,-2.8692975449621674
1782891278439560200,8.068560302734374,-9.481473458504675,-1.081703641833365,-3.2001793123617768
1782891278449582000,8.07858203125,-11.604370452606677,-0.6098191202893852,-3.0059710377305744
1782891278459604000,8.08860400390625,-13.792095600450038,0.06242050807774067,-2.713609555122256
1782891278469626000,8.098626220703125,-15.04791282339096,0.9736156075581908,-2.65222481983304
1782891278479648000,8.10864794921875,-14.533932204395532,1.6355761262342332,-2.243692680389434
1782891278489670100,8.118670166015624,-12.410725413691997,1.6016072211369872,-1.730145630505681
1782891278499692300,8.1286923828125,-9.319128933385015,1.1214356405019759,-1.4254298393674194
1782891278509714200,8.138714111328126,-5.71615061840415,0.5554045162737369,-1.149383531744033
1782891278519736000,8.148736083984375,-2.1300649860352276,0.025826515173912046,-0.738859341700375
1782891278529758200,8.15875830078125,0.41651334745585916,-0.48130160757824775,-0.553046116579324
1782891278539780000,8.168780029296874,2.200714977797866,-0.6793501910246909,-0.47628714041709896
1782891278549802000,8.178802001953125,3.4444659153699875,-0.6058055007338523,-0.38894086539745326
1782891278559824100,8.18882421875,3.822325999304652,-0.36212870018705723,-0.45084290255904197
1782891278569846300,8.19884619140625,3.141951872059703,-0.19903321056962012,-0.5370549128517508
1782891278579868200,8.2088681640625,1.9259516957223415,-0.15931845529675484,-0.5871499001026154
1782891278589890300,8.218890380859374,0.5069043969988822,-0.11397270839959382,-0.28539690429270265
1782891278599912200,8.228912109375,-0.4255693450927734,-0.037128684302419425,0.09696896662861108
1782891278609934000,8.23893408203125,-0.6918979763001203,-0.12192936649248003,0.7847206369042397
1782891278619956200,8.248956298828125,-0.38734862776994705,-0.27815584712326524,1.5708213299900293
1782891278629978000,8.25897802734375,0.35124563325345515,-0.3725809744879603,2.0819068120658395
1782891278640000000,8.269,1.50726041970551,-0.5669272693503647,2.575300277845561
1782891278650022100,8.279022216796875,2.8411738587617874,-0.763320706000924,2.8742268180578945
1782891278660044300,8.289044189453126,4.0656408346712585,-0.8453980276416987,2.8931156429231164
1782891278670066200,8.299066162109375,4.905249246060848,-0.8969861760597676,2.8092461041033268
1782891278680088000,8.309088134765625,5.2602229599267245,-0.8678747939962893,2.694237622915208
1782891278690110200,8.319110107421874,5.579135180330276,-0.6467020131371914,2.700040171714127
1782891278700132000,8.329132080078125,5.9668771913319825,-0.5431168432392179,2.756464069725573
1782891278710154000,8.339154052734376,6.415926780733466,-0.5395445377103985,2.633755973945558
1782891278720176000,8.349176025390625,6.601504881924391,-0.5384152414195239,2.475476798568666
1782891278730198300,8.3591982421875,6.593511545082927,-0.6147406484700739,2.3156126920878886
1782891278740220200,8.36922021484375,6.547944556650519,-0.7292367962218821,2.1089219525024294
1782891278750242300,8.3792421875,6.351084598466754,-0.8333838377863169,1.885496935737133
1782891278760264200,8.38926416015625,5.902234915551543,-0.9663589144282042,1.7660890505462883
1782891278770286000,8.3992861328125,5.2770221190363165,-1.0136289073862135,1.4893948004081845
1782891278780308200,8.40930810546875,4.534511561352014,-1.0613815692946313,1.2529685555115342
1782891278790330000,8.419330078125,3.7030017007440326,-1.1221237688966095,0.9195315506711602
1782891278800352000,8.42935205078125,2.8862299750626086,-1.2417131481342016,0.38248072947263717
1782891278810374100,8.4393740234375,1.7831483218967914,-1.436874193445593,-0.1200327390909195
1782891278820396300,8.449396240234375,0.46937750715911386,-1.6809513914868235,-0.27590923724025485
1782891278830418200,8.459418212890625,-0.791215844142437,-1.5476004672698676,-0.4080608686700463
1782891278840440000,8.469440185546874,-2.060712048345804,-1.060359386640042,-0.7948796273469925
1782891278850462200,8.479462158203125,-2.757567939314246,-0.30271380366608497,-1.3934627756118774
1782891278860484000,8.489484130859376,-3.149713738232851,0.250392957059294,-1.7055951266169547
1782891278870506000,8.499506103515625,-3.6454812396675345,0.31649200751930473,-1.7464675274923442
1782891278880528100,8.509528076171875,-4.296227121368051,0.12473989386856556,-1.636570690229535
1782891278890550000,8.519550048828124,-5.721562706580758,-0.1061921375259757,-1.5519666996553538
1782891278900572200,8.529572265625,-8.019462047323584,0.011097732597589493,-1.7773361284866929
1782891278910594300,8.53959423828125,-11.153379081487655,0.5070581262558699,-2.236470766311884
1782891278920616200,8.5496162109375,-14.82493175100088,1.1009773743629454,-2.7238454101935026
1782891278930638000,8.55963818359375,-17.30065317198038,1.7334668838828802,-3.1169559624910352
1782891278940660200,8.56966015625,-16.83539128344655,1.8471119677633046,-2.9987770345732567
1782891278950682000,8.57968212890625,-13.781452625882626,1.1424833969667554,-2.5758836306914685
1782891278960704000,8.5897041015625,-10.117910244345664,0.31795784228816626,-2.3804218488678335
1782891278970726100,8.59972607421875,-7.190304887321591,-0.37614758092835543,-2.5868662124767896
1782891278980748300,8.609748291015626,-4.9251072082191705,-1.0120742252901196,-2.973636163575947
1782891278990770200,8.619770263671874,-3.381854268634319,-1.5313948901392518,-3.4429122561872005
1782891279000792000,8.6297919921875,-2.2098878798127175,-1.9483724941059946,-3.9360698673844334
1782891279010814200,8.639814208984374,-0.8672036898016929,-2.151254196797311,-4.177440875206887
1782891279020836000,8.649836181640625,0.52526013790071,-2.2329260794423518,-3.9903810110256073
1782891279030858000,8.65985791015625,1.445782160913944,-2.1760241886556146,-3.6451682281956073
1782891279040880000,8.669880126953124,2.0479531045377253,-1.8654364367440341,-3.1896593796521424
1782891279050902000,8.679902099609375,2.6868974892854687,-1.373282449631393,-2.282740934577584
1782891279060924200,8.689924072265624,3.1274872933775186,-0.8708512525238096,-1.2515779779359697
1782891279070946300,8.6999462890625,3.4965362943470475,-0.38492388484105466,-0.2102854030765593
1782891279080968200,8.70996826171875,3.925547888848185,0.03973740549609065,0.8235890044808387
1782891279090990000,8.719989990234374,4.346161072838306,0.4416458890162408,1.7169623238056897
1782891279101012200,8.73001220703125,4.741874793371558,0.76457319028005,2.27972772423625
1782891279111034000,8.7400341796875,4.943964468902349,1.0064679297156631,2.6604320916861295
1782891279121056000,8.750055908203125,5.117337168514728,1.1792163599498569,2.9061110258355733
1782891279131078100,8.760078125,5.659150381809472,1.3057517589330672,2.9418536626070737
1782891279141100300,8.770100341796875,6.190244048169255,1.3169948913507163,2.840717931687832
1782891279151122200,8.7801220703125,6.5488108180910345,1.1967613689906895,2.557210202142596
1782891279161144300,8.790144287109374,7.058447854924202,1.0402828132949768,2.3018014627479015
1782891279171166200,8.800166259765625,7.624120667234063,0.9474126602873205,2.259213928517699
1782891279181188000,8.81018798828125,8.19871737523377,1.061469101447612,2.0577739490672946
1782891279191210000,8.8202099609375,8.397686288395523,0.9716118665203451,2.1028278734110293
1782891279201232100,8.830232177734375,8.392311609619856,0.8533955292016268,2.1934872185014185
1782891279211254000,8.84025390625,8.294756659796834,0.7709018087796866,2.3524629978403446
1782891279221276200,8.850276123046875,8.092419146984815,0.7110346384465694,2.613617733541131
1782891279231298300,8.86029833984375,7.608723776137828,0.5619792184889316,2.705947934453189
1782891279241320200,8.8703203125,6.610150545194744,0.35534079361259935,2.535331840072572
1782891279251342000,8.880342041015625,5.087878434318304,0.1809419658228755,2.1793930805668236
1782891279261364200,8.8903642578125,3.606166297367215,-0.024348843836784363,1.806156710910052
1782891279271386000,8.90038623046875,2.7351737366765736,-0.40308044990897174,1.2645479341462253
1782891279281408000,8.910407958984376,2.474197572413087,-0.7218678748890757,0.4348100516468286
1782891279291430100,8.92043017578125,2.3087042278736827,-0.9942276029542088,-0.4238208939902484
1782891279301452000,8.9304521484375,1.5573632980018852,-1.2561144523218273,-1.1582327547624707
1782891279311474200,8.94047412109375,0.3390817327290773,-1.0805813598051666,-1.8230230900369584
1782891279321496300,8.950496337890625,-0.810576378172636,-0.6412848103940486,-1.949959909427911
1782891279331517400,8.960517333984376,-1.861867053824663,-0.2987202039852738,-1.624356813083589
1782891279341539300,8.970539306640624,-2.349269462496042,-0.062056350940465924,-1.2898602161876858
1782891279351561500,8.9805615234375,-2.3953116672247647,0.01885696842223406,-1.0897327806405723
1782891279361583400,8.990583251953124,-2.731004926559329,-0.1602688878893852,-1.170640839306265
1782891279371605500,9.00060546875,-4.241882952240109,-0.49785219875425096,-1.508126535015553
1782891279381627400,9.01062744140625,-7.170131867864727,-0.6673565325006843,-1.8921378350563347
1782891279391649500,9.0206494140625,-10.980178231310843,-0.22816548929065464,-2.708395035344362
1782891279401671400,9.03067138671875,-14.348226092910766,0.4271349869742989,-3.5736879230886696
1782891279411693300,9.040693359375,-16.303336078578234,1.066218487931788,-3.6507743776395913
1782891279421715500,9.050715576171875,-16.457400851130483,1.643042516592145,-3.1604648493498564
1782891279431737300,9.0607373046875,-15.091377871108055,1.6561184173949062,-2.61492472448647
1782891279441759200,9.07075927734375,-12.516889786428212,0.9978530999749898,-2.3138464130677283
1782891279451781600,9.08078173828125,-9.445885427772998,0.1712058769673109,-2.2227679657824337
1782891279461803500,9.090803466796874,-6.585512947544455,-0.45185295638442036,-2.1887040758781136
1782891279471825400,9.100825439453125,-4.0763744101315735,-0.9425104213289915,-2.0565061210885642
1782891279481847600,9.11084765625,-1.849623658323288,-1.2906538507834076,-1.8915519979923963
1782891279491869400,9.120869384765625,0.011968670213222503,-1.517594474454224,-1.625885191694647
1782891279501891300,9.130891357421875,1.745475886106491,-1.6763839374408125,-1.403061647953838
1782891279511913500,9.14091357421875,3.358936918905377,-1.6334711167789995,-1.2176437057606875
1782891279521935400,9.150935302734375,4.368464090061187,-1.4720703022502362,-0.9131946027345955
1782891279531957500,9.16095751953125,4.354058548089862,-1.1550146694988013,-0.4530471346050501
1782891279541979600,9.170979736328125,3.518811839041114,-0.6751803579941391,0.2882346119366586
1782891279552001500,9.18100146484375,2.5039111581534144,-0.1534327582590282,1.257038289168477
1782891279562023400,9.1910234375,1.7245272061020134,0.26815891537442804,2.065972014700621
1782891279572045300,9.20104541015625,1.4469740010470151,0.3944122825458646,2.4102844876900313
1782891279582067500,9.2110673828125,1.8170815711587667,0.390032460026443,2.527508891361952
1782891279592089300,9.22108935546875,2.8423738822013136,0.29946883039548994,2.4936428621172904
1782891279602111200,9.231111328125,4.314050947350263,0.10407017693594098,2.349320462030917
1782891279612133400,9.24113330078125,5.98310761064291,-0.07936404409408569,2.2236413876160976
1782891279622155500,9.251155517578125,7.5716843775540585,-0.19942820123657584,2.115140680886805
1782891279632177400,9.261177490234376,8.844746749806404,-0.3165539668396115,2.0144680374346673
1782891279642199600,9.271199462890625,9.495960249018669,-0.4944743928842246,1.9825673169136047
1782891279652221400,9.281221435546875,9.608346857270599,-0.5419095132760703,2.005827342600375
1782891279662243300,9.291243408203124,9.581632453346252,-0.40192338882833717,2.0817733949445185
1782891279672265500,9.301265380859375,9.394917457079886,-0.4583184991367161,2.3410696432970464
1782891279682287400,9.311287353515626,8.601939279440044,-0.43878655406236644,2.357779516687989
1782891279692309500,9.3213095703125,7.347458273538947,-0.3524474102586508,2.274864940505475
1782891279702331600,9.33133154296875,6.303520298737287,-0.4078773287966847,2.0129317677780985
1782891279712353500,9.341353515625,5.625270908561348,-0.5160187006942928,1.6247035806946455
1782891279722375400,9.35137548828125,5.1227580245196815,-0.5826524425528943,1.4015407219968736
1782891279732397300,9.361397216796876,4.629424472233652,-0.6015063422352075,1.171444849165529
1782891279742419500,9.37141943359375,4.109363072019815,-0.6740139445632696,0.8628978093013167
1782891279752441300,9.38144140625,3.56074368584156,-0.8334666937641799,0.5300169770389795
1782891279762463200,9.391463134765624,3.1006741052538156,-0.9725846570752561,0.12853680193349717
1782891279772485400,9.4014853515625,2.6373101592957973,-1.051540558759868,-0.17620660786405204
1782891279782507500,9.411507568359376,1.731848342770338,-1.1060378726229072,-0.23539938606694338
1782891279792529400,9.421529296875,0.17451836251616476,-0.837181622634083,-0.25299919403493404
1782891279802551600,9.431551513671875,-1.7324638443201779,-0.2653358207777142,-0.3297922185972333
1782891279812573400,9.441573486328124,-3.7508337114989754,0.43016777879893775,-0.5962370235301554
1782891279822595300,9.45159521484375,-5.147445306530595,0.9108103379465639,-1.166330136500299
1782891279832617500,9.461617431640626,-5.260392471274733,0.9680049280695616,-1.7084737507931886
1782891279842639400,9.471639404296875,-6.0904860353440045,0.6244497031882404,-1.8084296242780982
1782891279852661200,9.4816611328125,-7.255633391800522,0.5992398586079478,-2.553372231414914
1782891279862683600,9.49168359375,-8.82434985846579,0.8607641582734882,-3.2548417536586522
1782891279872705500,9.50170556640625,-11.161639544832706,1.0234995824068784,-3.4063939588680863
1782891279882727400,9.5117275390625,-14.093531200873851,1.5867410759165883,-3.3948677717253566
1782891279892749600,9.52174951171875,-16.437514247399566,2.449175213228911,-3.4948613468721508
1782891279902771500,9.531771484375,-17.159928357994556,2.8675895720005036,-3.530592877727747
1782891279912793300,9.54179345703125,-16.004036321139335,2.5381360838383435,-3.24645328001976
1782891279922815200,9.551815185546875,-13.465069631695746,1.6756516776435075,-2.60795926938802
1782891279932837400,9.56183740234375,-10.57292546415329,1.0260856533773244,-2.2280001673474907
1782891279942859500,9.571859619140625,-8.151103391143678,0.12741378925293684,-1.5846351896785198
1782891279952881400,9.58188134765625,-6.1772647396087645,-0.840312906397134,-1.2410552687473595
1782891279962903600,9.591903564453125,-4.703500931313633,-1.2510901944190262,-1.5442999644197524
1782891279972925400,9.601925537109375,-3.5698756713241337,-1.6171930589340626,-1.9135870119288563
1782891279982948600,9.611948486328124,-2.307566163754463,-1.8401180172227323,-2.1903264163829386
1782891279992969500,9.621969482421875,-1.0332570063114166,-1.8703145641744137,-2.1942139253407715
1782891280002992400,9.631992431640626,0.1573018547773361,-1.8198267782136797,-1.7915711361967026
1782891280013013200,9.64201318359375,1.2998095094025135,-1.5395407871939242,-1.280008684258908
1782891280023036400,9.652036376953125,2.0555898830264807,-1.236189562407136,-0.6151465989224613
1782891280033058300,9.662058349609374,2.2687474805384875,-0.9407225149989128,0.1603098044216633
1782891280043080400,9.67208056640625,2.0702087754875422,-0.4583699370630085,0.73643021485731
1782891280053102600,9.6821025390625,1.7636609466165303,0.05431318946778774,1.0803240240432321
1782891280063124500,9.69212451171875,1.8201164088100195,0.47077962904199955,1.3585069053038954
1782891280073146400,9.702146484375,2.3187100735813377,0.7329055478625,1.4742926544748245
1782891280083168500,9.71216845703125,3.179520262953639,0.9123743723928928,1.2053732761219142
1782891280093190400,9.7221904296875,4.215853607970476,0.9916215121090411,0.8175953170239925
1782891280103212300,9.73221240234375,5.396368629428744,0.985331179793179,0.44501609610170123
1782891280113234400,9.742234375,6.801216722407936,0.854220435718447,0.21484102055430412
1782891280123256300,9.75225634765625,8.324048220732807,0.6401787488482892,0.08779168069958686
1782891280133278500,9.762278564453124,9.535821719285845,0.5696712342962622,-0.038635581734031435
1782891280143300600,9.772300537109375,10.318283179086446,0.5727734380953013,-0.02205839481204748
1782891280153322500,9.782322509765624,10.520931073021888,0.5302748973228038,0.12616378919184207
1782891280163344400,9.792344482421875,10.061994880378245,0.5155079746931791,0.26435163204595447
1782891280173366500,9.802366455078126,9.217612094193697,0.4457245366320014,0.35504254131838675
1782891280183388400,9.812388427734374,7.891118576005101,0.3686531335197389,0.4358833799667656
1782891280193410300,9.822410400390625,6.541328353381156,0.37614348927512764,0.36121969558335837
1782891280203432400,9.832432373046874,5.477910017561912,0.3972857921555638,0.28330205090530214
1782891280213454600,9.84245458984375,4.524318668639659,0.33670565124750135,0.0712624245725572
1782891280223476500,9.8524765625,4.002422454214096,0.15889467692673206,-0.18014233987778425
1782891280233498400,9.862498291015624,4.001990492537617,-0.16363398040831087,-0.21032566202171146
1782891280243520500,9.8725205078125,4.1382782008588315,-0.38758272878676653,0.06479790473356843
1782891280253542400,9.88254248046875,3.8681554380655285,-0.4035521590739488,0.3277808057095855
1782891280263564300,9.892564208984375,3.0844618061214684,-0.35331542526483534,0.3417582584619522
1782891280273586400,9.90258642578125,1.8722113377064464,-0.48234980145692824,0.2394236000817269
1782891280283608300,9.9126083984375,0.46002048074901103,-0.5343126284062862,0.027862770241871476
1782891280293630500,9.92263037109375,-1.0350585027754307,-0.28761633390784264,-0.1304042032405734
1782891280303652600,9.932652587890624,-2.458807695579529,-0.06089110655337572,0.2747892202343792
1782891280313674500,9.942674560546875,-3.441770100414753,-0.1205485796585679,0.9296095117669552
1782891280323696400,9.9526962890625,-4.27959045934379,-0.2562348149552941,1.395145614132285
1782891280333718500,9.962718505859375,-5.389446136689186,-0.23366028731465338,1.0604822823673485
1782891280343740400,9.972740478515625,-6.876747471949458,-0.17667700185477733,-0.1848075552098453
1782891280353762600,9.982762451171874,-9.192952284711598,-0.22703882334828376,-1.2697265058279037
1782891280363784400,9.992784423828125,-12.741771724003552,0.24597148735523222,-1.9039004613034427
1782891280373806600,10.002806640625,-16.68458814303875,1.3662822154805063,-2.1188054870046673
1782891280383828500,10.012828369140625,-19.193253217720983,2.509695586773753,-1.7135037077844142
1782891280393850600,10.0228505859375,-19.24594669703245,2.910745992159843,-0.8859924152933061
1782891280403872500,10.03287255859375,-16.64072562043667,2.735557183036208,-0.4195417553663254
1782891280413894400,10.042894287109375,-12.691867583149671,1.5231544466689229,0.3840271551970392
1782891280423916500,10.05291650390625,-8.362103518360852,0.7306060387484729,0.7867340956185013
1782891280433938400,10.0629384765625,-4.345957074698806,-0.07434636206254362,0.859297738982737
1782891280443960300,10.072960205078125,-1.1373732143461703,-1.1868304882153868,0.6620924744926393
1782891280453982500,10.082982421875,1.2605337300688026,-1.7394582332521675,0.23557532715573906
1782891280464004600,10.093004638671875,2.932253475090861,-1.7243541876226662,-0.02083265240937471
1782891280474026500,10.103026611328126,4.021346350392699,-1.466582664619386,-0.134222592484951
1782891280484048600,10.113048583984375,4.6499137180328365,-1.192975274580717,-0.5302170296557247
1782891280494070500,10.123070556640625,5.03525568215549,-0.8205727253995835,-0.976021938047558
1782891280504092400,10.133092529296874,5.239861724421382,-0.6414014225110412,-1.1522615713983773
1782891280514114600,10.143114501953125,4.983501529520749,-0.5164402871072292,-0.654710401417315
1782891280524136400,10.153136474609376,4.580704572728276,0.09334230056405067,0.12707001731656492
1782891280534158600,10.16315869140625,4.634551313728094,0.9212984142132102,0.7370023156568407
1782891280544180700,10.1731806640625,5.000889302173257,1.3162927344307302,1.0791039076637476
1782891280554202600,10.18320263671875,5.931422431591153,1.7634186622932553,0.46818793204836545
1782891280564224500,10.193224609375,6.706452280086278,1.5248597892820834,0.8598731277178973
1782891280574246400,10.203246337890626,7.8419930183082815,0.7968307614147663,1.608442912375927
1782891280584268500,10.2132685546875,8.908111260735987,0.7914385469824076,1.6089233893692492
1782891280594290400,10.22329052734375,9.742210553315282,1.0915651106342672,1.1933220421917736
1782891280604312300,10.233312255859374,10.26286699681282,1.1635349528238177,0.6303739786706865
1782891280614334500,10.24333447265625,10.33726260484457,1.0178387801662088,0.18788287100195883
1782891280624356600,10.253356689453126,10.153753126621245,0.8703092546015977,-0.15019326488114892
1782891280634378500,10.26337841796875,9.711269471606611,0.8310328907459974,-0.2958735093172639
1782891280644400600,10.273400634765625,9.202640150511264,0.8311156005933881,-0.25159911797866225
1782891280654422500,10.283422607421874,8.623665958079695,0.8048696909636258,0.08638758605532347
1782891280664444400,10.2934443359375,7.876165921545028,0.7302607324421405,0.5555083419743925
1782891280674466600,10.303466552734376,6.962076561927795,0.6516577358484268,0.9702447428856045
1782891280684488400,10.313488525390625,5.954056288203597,0.5434577656313777,1.2297922625854611
1782891280694510300,10.32351025390625,5.113811916998029,0.36835663479119535,1.3429232594639062
1782891280704532700,10.33353271484375,4.364085436585546,0.08005173409730196,1.4428902388647198
1782891280714554600,10.3435546875,3.669720193389058,-0.25937135941535233,1.619489207047224
1782891280724576500,10.353576416015626,3.071860683223605,-0.6555217178002,1.7843262796349821
1782891280734598700,10.3635986328125,2.3574521844297647,-0.9752131058827042,1.5084513830557464
1782891280744620500,10.37362060546875,1.2459206828266383,-1.1901242690637708,0.7563746131900697
1782891280754642400,10.383642333984374,-0.2673947991341352,-1.357989018909633,0.0590331306617707
1782891280764664300,10.393664306640625,-1.7490274411082267,-1.4986971740216015,-0.24506620907858012
1782891280774686500,10.4036865234375,-3.203324916911125,-1.6181363311335444,-0.1696275217346847
1782891280784708600,10.41370849609375,-5.286958991160988,-1.4937196778699755,-0.1014395361714065
1782891280794730500,10.42373046875,-8.498506377494335,-0.779046682921052,-0.8345145953819155
1782891280804752600,10.433752685546875,-12.59276423484087,0.42184798648208377,-2.3826094220399856
1782891280814774500,10.4437744140625,-16.768649405038357,1.3327677761524914,-3.382866952808201
1782891280824796400,10.45379638671875,-19.670017328000068,1.8616092796713113,-3.3613457336127754
1782891280834818600,10.463818603515625,-20.211939262366293,2.1510916997119782,-2.6426079734429715
1782891280844840400,10.47384033203125,-18.44716597059369,2.0678889542378482,-1.8569851270020008
1782891280854862300,10.4838623046875,-15.118469291651248,1.5469950487226247,-1.3252064009875058
1782891280864884700,10.493884765625,-11.578319481027126,0.5356891774564981,-0.7060972551096231
1782891280874906600,10.50390673828125,-8.248744265684484,-0.08297127480581402,-0.6390936570253223
1782891280884928500,10.513928466796875,-5.7965539424180985,-0.5101438173115254,-0.7494179259199648
1782891280894950700,10.52395068359375,-4.209305793762207,-0.9177420369058847,-0.9759262956533581
1782891280904972500,10.53397265625,-3.176743199455738,-1.1380025982908903,-1.5237626416951418
1782891280914994400,10.543994384765625,-2.2145178777009247,-1.3761996522523463,-2.0456467272914947
1782891280925016300,10.554016357421874,-0.9650520696133374,-1.584935049407929,-2.417470745932311
1782891280935038500,10.56403857421875,0.3846130653262138,-1.698825924742967,-2.606688226538896
1782891280945060600,10.574060546875,1.4673019188046454,-1.6910339556924998,-2.420251024300605
1782891280955082500,10.58408251953125,2.112698840692639,-1.5085766168706118,-1.9004022439241408
1782891280965104600,10.594104736328125,2.3618483735620974,-1.212867723530531,-1.1811978160906582
1782891280975126500,10.60412646484375,2.3271885635912417,-0.7862042995907366,-0.3971249755706638
1782891280985148400,10.6141484375,2.1668156308054924,-0.27777912276536226,0.21358970531895755
1782891280995170600,10.624170654296876,2.177882968264818,0.20663170287460086,0.5633184312034398
1782891281005192400,10.6341923828125,2.5328315476894376,0.5059012113057076,0.7600462143748998
1782891281015214300,10.64421435546875,3.275266117528081,0.6537067773327231,0.935474458277598
1782891281025236500,10.654236572265624,4.263172993028164,0.7328954648599029,1.0077473750669508
1782891281035258600,10.664258544921875,5.440656099444627,0.818363817178458,1.075600941044092
1782891281045280500,10.674280517578126,6.505400715431571,0.7961166217960417,1.0632225209861994
1782891281055302700,10.684302734375,7.387134450367093,0.7385729259744286,1.0549606694016604
1782891281065324500,10.694324462890625,8.00182526834607,0.6865949014559388,1.0912029993236065
1782891281075346400,10.704346435546874,8.244050554910302,0.6433959573291241,1.1402043461188673
1782891281085368600,10.71436865234375,8.221279335653781,0.575984655226767,1.0446404239825904
1782891281095390500,10.724390380859376,7.852623717916011,0.5071484348878265,0.8145304495606571
1782891281105412600,10.73441259765625,7.272483988836408,0.5117439459845423,0.5919479480341077
1782891281115434500,10.7444345703125,6.72838061877787,0.519917023307085,0.49800658559836447
1782891281125456600,10.75445654296875,6.003508009114861,0.4531844972491264,0.41659488825947044
1782891281135478500,10.764478515625,5.160776497268676,0.42690117821842427,0.39007878338620067
1782891281145500400,10.77450048828125,4.3421968453824515,0.44100510689467187,0.45436866553239524
1782891281155522600,10.7845224609375,3.5275101092815397,0.2776864760458469,0.560553204273805
1782891281165544400,10.79454443359375,2.9901930383622646,0.017016893513500688,0.6726344729036092
1782891281175566300,10.80456640625,2.9926550445616242,-0.27782442321181294,0.9915656902685761
1782891281185588500,10.81458837890625,2.9465315912902352,-0.7392600314557551,1.4207526413366198
1782891281195610600,10.824610595703126,2.4599732322275636,-1.2417960041120648,1.689889607962966
1782891281205632500,10.834632568359375,1.2554074730962514,-1.5867235402598976,1.6398559955105185
1782891281215654700,10.844654541015625,-0.46166532534658905,-1.68770904905349,1.210271569557488
1782891281225676500,10.854676513671874,-2.224403896421194,-1.8490476120010018,0.9455893903829157
1782891281235698400,10.864698486328125,-2.864171872511506,-2.0896175325736404,1.2127691585268825
1782891281245720600,10.874720458984376,-1.671836064878106,-2.1793165081992742,1.7610317671567202
1782891281255742500,10.884742431640625,-0.3751993402928114,-1.9845070528045297,1.692994880501926
1782891281265764400,10.894764404296875,-1.4669044439196586,-1.3801210634797811,0.5670750803232193
1782891281275786500,10.904786376953124,-4.5688270879298445,-0.5799973979994655,-1.1587269680202006
1782891281285808600,10.91480859375,-8.939101442283391,0.3668532444909215,-2.6343571547091007
1782891281295830500,10.92483056640625,-13.242848437762259,1.5126047033429144,-2.9910207213580606
1782891281305852400,10.934852294921875,-14.948090513157844,2.4866508112728596,-1.7944440612845123
1782891281315874600,10.94487451171875,-13.829423168325423,2.9830206625148654,0.040331718127429486
1782891281325896400,10.954896484375,-11.1253220307827,2.8268831753417847,1.4971338702276349
1782891281335918600,10.964918701171875,-8.00038792901933,2.3435525461539624,2.14564278665632
1782891281345940500,10.9749404296875,-5.418376463097333,1.6589271912053227,2.1325120869264005
1782891281355963000,10.984962890625,-3.5588480813533065,0.9803650818184018,1.7167852136731148
1782891281365984800,10.99498486328125,-2.292200836840272,0.4804626725360751,1.2571397037163377
1782891281376006700,11.005006591796874,-1.3892618167906998,0.25309067171066996,0.9234778040789067
1782891281386028500,11.015028564453125,-0.5620692348599433,0.11120791986137628,0.6231907161030918
1782891281396050700,11.02505078125,0.09933423445522785,-0.02025076086819172,0.23704905297011136
1782891281406072600,11.035072509765625,0.8092267171293497,0.1327583651512861,-0.09726371179148555
1782891281416094500,11.045094482421876,1.8392887267917393,0.11377689356654881,-0.532488189458102
1782891281426116600,11.05511669921875,2.8262814100563523,0.4295785807341337,-1.53623370847255
1782891281436138800,11.065138671875,2.9136002125471827,0.2057528742134571,-1.3248309918038546
1782891281446160600,11.07516064453125,2.9673890858799217,-0.4059983831822872,-0.42685017868354913
1782891281456182800,11.085182861328125,3.1694232318311926,-0.6071592534303665,0.4575928152106702
1782891281466204700,11.09520458984375,2.881635633009672,-0.9264774242863059,1.2080194067165255
1782891281476226600,11.1052265625,2.191918507879972,-1.2165835291832685,1.5486960074216127
1782891281486248700,11.115248779296875,1.8823071997851133,-1.0806585166946052,1.4292796466633677
1782891281496270600,11.1252705078125,1.9887831226885317,-0.9713117145299911,0.8158546108365058
1782891281506292500,11.13529248046875,2.2806810794383288,-0.8054071588411926,0.08816445953473448
1782891281516314600,11.145314697265626,2.2527941246032714,-0.8703820275768637,-0.11897256251350044
1782891281526336800,11.155336669921875,1.8720429954022169,-0.9650520696133374,0.048272009607404465
1782891281536358700,11.165358642578125,1.5174486362427473,-0.7597501540377736,0.29826120817139745
1782891281546380800,11.175380859375,1.2643962507158517,-0.40891193254143,0.4466353678666055
1782891281556402700,11.185402587890625,0.9577455459922551,-0.36797085034400223,0.4216461802996695
1782891281566424600,11.195424560546876,0.8501566934108734,-0.4111398377239704,0.3327288565710187
1782891281576446500,11.205446533203125,0.8595230721712112,-0.22660598488897085,0.3272437031581998
1782891281586468600,11.215468505859375,0.7369020701527595,-0.09297697438299656,0.13515651233419776
1782891281596490500,11.225490478515624,0.29277649314999576,-0.060736208252608774,-0.39669337922036646
1782891281606512600,11.2355126953125,-0.249750421372056,-0.18620090926438568,-0.6658734543360769
1782891281616534800,11.24553466796875,0.07039046404361725,-0.7210398996323346,-0.36466990910246966
1782891281626556700,11.255556640625,1.3528104472279547,-1.2045175360754132,-0.14884747629538178
1782891281636578600,11.26557861328125,2.3189976583510634,-0.9903224122092127,-1.0033969978377222
1782891281646600700,11.2756005859375,1.9968734901636838,-0.5756795348003506,-2.162745020365715
1782891281656622600,11.28562255859375,0.8865279834747314,0.24554829350709914,-2.4163014098919926
