time,seconds_elapsed,z,y,x
1782891270441997800,0.070997802734375,1.2046689987182617,-0.020975753664970398,1.9428150653839111
1782891270452019700,0.081019775390625,1.3568543195724487,-0.6787000894546509,1.9986242055892944
1782891270462041600,0.09104150390625,1.2979884147644043,-1.245854139328003,1.878066062927246
1782891270472063700,0.101063720703125,0.8842408061027527,-1.2976608276367188,1.5847268104553223
1782891270482085600,0.111085693359375,0.039785534143447876,-1.1255877017974854,1.21303391456604
1782891270492107500,0.121107421875,-0.9427552223205566,-1.2122331857681274,0.8752917051315308
1782891270502130000,0.1311298828125,-1.722782015800476,-1.6839914321899414,0.6072715520858765
1782891270512151800,0.14115185546875,-2.163097620010376,-2.4074161052703857,0.40589985251426697
1782891270522173700,0.151173583984375,-2.3626890182495117,-3.1045734882354736,0.24133539199829102
1782891270532195600,0.161195556640625,-2.412390947341919,-3.2041988372802734,0.020758284255862236
1782891270542217700,0.1712177734375,-2.342392921447754,-2.9431354999542236,-0.26565021276474
1782891270552239600,0.181239501953125,-1.8209048509597778,-2.1029601097106934,-0.5800496935844421
1782891270562261500,0.191261474609375,-0.6692047715187073,-0.7513436079025269,-0.845062255859375
1782891270572283600,0.20128369140625,0.8350311517715454,0.9369982481002808,-1.1125900745391846
1782891270582305800,0.211305908203125,1.7426791191101074,1.7250421047210693,-1.7167152166366577
1782891270592327700,0.22132763671875,1.8097606897354126,1.3960267305374146,-2.0781936645507812
1782891270602349800,0.231349853515625,1.9120091199874878,1.0250120162963867,-2.0868072509765625
1782891270612371700,0.241371826171875,1.910125494003296,0.46573033928871155,-1.8224217891693115
1782891270622393600,0.2513935546875,1.6465351581573486,-0.16674935817718506,-1.3863002061843872
1782891270632415700,0.261415771484375,1.2208343744277954,-0.7477445602416992,-0.8842847347259521
1782891270642437600,0.271437744140625,0.9541662931442261,-1.2474766969680786,-0.57039475440979
1782891270652459500,0.28145947265625,0.8654886484146118,-1.4837443828582764,-0.4201224446296692
1782891270662481700,0.291481689453125,0.8285548686981201,-1.3749889135360718,-0.3112635910511017
1782891270672503800,0.30150390625,0.8398392200469971,-1.2306355237960815,-0.3588774502277374
1782891270682525700,0.311525634765625,0.9066763520240784,-1.1177699565887451,-0.5138630867004395
1782891270692547800,0.3215478515625,0.9866905212402344,-0.9580074548721313,-0.6886565089225769
1782891270702569700,0.33156982421875,1.0811716318130493,-0.8697689771652222,-0.8482196927070618
1782891270712591600,0.341591552734375,1.1772656440734863,-0.8875365257263184,-0.9837790727615356
1782891270722613500,0.351613525390625,1.2278553247451782,-1.063615083694458,-1.091050386428833
1782891270732635600,0.3616357421875,1.235860824584961,-1.3613582849502563,-1.1076384782791138
1782891270742657500,0.371657470703125,1.2440563440322876,-1.658085823059082,-1.0819709300994873
1782891270752679700,0.3816796875,1.2752013206481934,-1.944092869758606,-1.0561810731887817
1782891270762701800,0.391701904296875,1.288680076599121,-2.1566989421844482,-1.0446408987045288
1782891270772723700,0.4017236328125,1.2670973539352417,-2.2657265663146973,-1.1087380647659302
1782891270782745600,0.41174560546875,1.2223100662231445,-2.3154513835906982,-1.2985717058181763
1782891270792767700,0.421767822265625,1.196868896484375,-2.4334042072296143,-1.6078757047653198
1782891270802789600,0.43178955078125,1.1902505159378052,-2.6021275520324707,-1.9568217992782593
1782891270812811500,0.4418115234375,1.2175506353378296,-2.7164900302886963,-2.2295353412628174
1782891270822833700,0.451833740234375,1.292816400527954,-2.833885908126831,-2.371870994567871
1782891270832855800,0.461855712890625,1.3243647813796997,-2.9419729709625244,-2.3373682498931885
1782891270842877700,0.471877685546875,1.2613003253936768,-2.9302444458007812,-2.146097421646118
1782891270852899800,0.48189990234375,1.104201078414917,-2.7256178855895996,-1.8483964204788208
1782891270862921700,0.491921630859375,0.9071115851402283,-2.281862497329712,-1.5303797721862793
1782891270872943600,0.501943603515625,0.7589098811149597,-1.7738795280456543,-1.3359359502792358
1782891270882965800,0.5119658203125,0.6508726477622986,-1.2448550462722778,-1.2888078689575195
1782891270892987600,0.521987548828125,0.5829436779022217,-0.820804238319397,-1.3377610445022583
1782891270903009500,0.532009521484375,0.5131847858428955,-0.4752943515777588,-1.443666934967041
1782891270913031700,0.54203173828125,0.4222375750541687,-0.19591011106967926,-1.5776876211166382
1782891270923053800,0.5520537109375,0.3381749391555786,-0.028968648985028267,-1.6919745206832886
1782891270933075700,0.56207568359375,0.2512408494949341,0.03147391974925995,-1.7346453666687012
1782891270943097600,0.57209765625,0.18414674699306488,0.02330123633146286,-1.693717360496521
1782891270953119700,0.58211962890625,0.12980201840400696,0.011581462807953358,-1.5844215154647827
1782891270963142700,0.592142578125,0.08108899742364883,0.04771484434604645,-1.4398977756500244
1782891270973164800,0.602164794921875,0.027017509564757347,0.13670091331005096,-1.2917869091033936
1782891270983186700,0.612186767578125,-0.004246873781085014,0.2539154589176178,-1.1317015886306763
1782891270993208600,0.62220849609375,0.000014450284652411938,0.3836577534675598,-0.9403543472290039
1782891271003230500,0.63223046875,0.009219592437148094,0.5070312023162842,-0.7237926125526428
1782891271013252600,0.642252685546875,-0.0076374183408916,0.6590995788574219,-0.5075572729110718
1782891271023274800,0.652274658203125,-0.04420003667473793,0.78913414478302,-0.3088608682155609
1782891271033296600,0.662296630859375,-0.10429586470127106,0.9158140420913696,-0.09022068232297897
1782891271043318800,0.67231884765625,-0.20765943825244904,1.066825032234192,0.15174922347068787
1782891271053340700,0.682340576171875,-0.34158769249916077,1.2213419675827026,0.3866671919822693
1782891271063362600,0.692362548828125,-0.43913039565086365,1.3251638412475586,0.5896921157836914
1782891271073384700,0.702384765625,-0.4749946594238281,1.3329880237579346,0.7352818250656128
1782891271083406600,0.712406494140625,-0.45212194323539734,1.1350936889648438,0.7753704786300659
1782891271093428700,0.7224287109375,-0.408285528421402,0.7344621419906616,0.6733596920967102
1782891271103451000,0.732450927734375,-0.3517005741596222,0.2712748944759369,0.485927551984787
1782891271113472800,0.74247265625,-0.27429500222206116,-0.13803033530712128,0.2508159875869751
1782891271123494700,0.75249462890625,-0.17041337490081787,-0.4551467001438141,-0.07993128895759583
1782891271133516800,0.762516845703125,-0.062339913100004196,-0.6420822739601135,-0.40829557180404663
1782891271143538700,0.77253857421875,0.007380236871540546,-0.762686014175415,-0.6802293062210083
1782891271153560600,0.782560546875,0.05773475393652916,-0.9274994730949402,-0.9260262846946716
1782891271163582700,0.792582763671875,0.11818451434373856,-1.17961847782135,-1.1614246368408203
1782891271173604600,0.8026044921875,0.2427179217338562,-1.5575047731399536,-1.377969741821289
1782891271183626800,0.812626708984375,0.3787091374397278,-2.0757083892822266,-1.6238155364990234
1782891271193648600,0.822648681640625,0.5505146980285645,-2.6215970516204834,-1.8424075841903687
1782891271203670800,0.8326708984375,0.6626062393188477,-3.1144776344299316,-1.9928061962127686
1782891271213692700,0.842692626953125,0.7642776966094971,-3.344621181488037,-2.0184664726257324
1782891271223714600,0.852714599609375,0.9373908638954163,-3.224078416824341,-1.8756835460662842
1782891271233736700,0.86273681640625,1.1485981941223145,-2.884558916091919,-1.706005334854126
1782891271243758600,0.872758544921875,1.354526162147522,-2.416578531265259,-1.6236761808395386
1782891271253780500,0.882780517578125,1.4330912828445435,-1.8806591033935547,-1.6000866889953613
1782891271263803000,0.892802978515625,1.3434357643127441,-1.3368152379989624,-1.6036767959594727
1782891271273824800,0.90282470703125,1.1915102005004883,-0.8387444615364075,-1.6610172986984253
1782891271283846700,0.9128466796875,1.0575755834579468,-0.3944486379623413,-1.732192873954773
1782891271293868800,0.922868896484375,0.9192546010017395,-0.027936698868870735,-1.7963197231292725
1782891271303890700,0.932890625,0.7541037797927856,0.3364027142524719,-1.7547216415405273
1782891271313912600,0.94291259765625,0.5297295451164246,0.6426675319671631,-1.5482672452926636
1782891271323934500,0.9529345703125,0.2461792528629303,0.9227893352508545,-1.148067593574524
1782891271333956600,0.96295654296875,-0.03272561728954315,1.1164811849594116,-0.6237889528274536
1782891271343978800,0.972978759765625,-0.2706966698169708,1.2483476400375366,-0.054987236857414246
1782891271354000600,0.983000732421875,-0.4215458333492279,1.3275710344314575,0.43951597809791565
1782891271364022800,0.993022705078125,-0.5004943013191223,1.3832993507385254,0.809123158454895
1782891271374044700,1.003044677734375,-0.5709242224693298,1.3626774549484253,1.0333799123764038
1782891271384066600,1.013066650390625,-0.6620363593101501,1.2923201322555542,1.119407296180725
1782891271394088700,1.023088623046875,-0.7393684387207031,1.2567412853240967,1.118576169013977
1782891271404110600,1.033110595703125,-0.826690673828125,1.2577815055847168,1.0340733528137207
1782891271414132500,1.043132568359375,-0.8696067333221436,1.3984830379486084,0.9464181065559387
1782891271424155000,1.05315478515625,-0.8605006337165833,1.6583802700042725,0.8659536838531494
1782891271434176800,1.0631767578125,-0.8584723472595215,1.8909329175949097,0.7383512258529663
1782891271444198700,1.07319873046875,-0.8611493110656738,2.063549757003784,0.6179799437522888
1782891271454220500,1.083220458984375,-0.8779416084289551,2.171203851699829,0.544069230556488
1782891271464242700,1.09324267578125,-0.8895784020423889,2.249127149581909,0.5686874389648438
1782891271474264600,1.1032646484375,-0.8622405529022217,2.2710413932800293,0.7030678391456604
1782891271484286500,1.113286376953125,-0.7598480582237244,2.06575083732605,0.9072305560112
1782891271494308600,1.12330859375,-0.6239895820617676,1.6594719886779785,1.1236193180084229
1782891271504330800,1.133330810546875,-0.5165805816650391,1.1741867065429688,1.2839925289154053
1782891271514352600,1.1433525390625,-0.43052905797958374,0.7816817164421082,1.3237148523330688
1782891271524374800,1.153374755859375,-0.3348883390426636,0.5127448439598083,1.2613863945007324
1782891271534396700,1.163396728515625,-0.28671494126319885,0.3283635079860687,1.1371948719024658
1782891271544418600,1.17341845703125,-0.2630288004875183,0.21988117694854736,0.9731870293617249
1782891271554440700,1.183440673828125,-0.2498546838760376,0.1625545173883438,0.7293458580970764
1782891271564462600,1.193462646484375,-0.21316185593605042,0.1993248015642166,0.467766135931015
1782891271574484500,1.203484375,-0.2196117639541626,0.2793000638484955,0.2947855591773987
1782891271584506600,1.213506591796875,-0.26591619849205017,0.3844548165798187,0.23063962161540985
1782891271594528800,1.22352880859375,-0.3211573362350464,0.49856674671173096,0.25325414538383484
1782891271604550700,1.233550537109375,-0.38869890570640564,0.48885461688041687,0.29839983582496643
1782891271614572500,1.243572509765625,-0.4211631119251251,0.3860622048377991,0.35298824310302734
1782891271624594700,1.2535947265625,-0.38632217049598694,0.19884029030799866,0.34389716386795044
1782891271634616600,1.263616455078125,-0.2966119945049286,-0.08493950963020325,0.27509039640426636
1782891271644638500,1.273638427734375,-0.1724836677312851,-0.4273102581501007,0.21295805275440216
1782891271654660600,1.28366064453125,-0.1306517869234085,-0.9272252917289734,0.09283776581287384
1782891271664682800,1.293682861328125,-0.12125888466835022,-1.4973430633544922,-0.09365695714950562
1782891271674704600,1.30370458984375,-0.1318739801645279,-1.9100933074951172,-0.3368903696537018
1782891271684726800,1.313726806640625,-0.22315175831317902,-2.0557069778442383,-0.6322359442710876
1782891271694748700,1.323748779296875,-0.3360660672187805,-1.8115876913070679,-0.9044181704521179
1782891271704770600,1.3337705078125,-0.4185265302658081,-1.3342647552490234,-1.1695154905319214
1782891271714792700,1.343792724609375,-0.4520360231399536,-0.8618460893630981,-1.4361860752105713
1782891271724814600,1.353814697265625,-0.39412426948547363,-0.39714959263801575,-1.6077263355255127
1782891271734837500,1.36383740234375,-0.29511672258377075,-0.10587434470653534,-1.6724861860275269
1782891271744858600,1.373858642578125,-0.19484460353851318,-0.11144699156284332,-1.6697282791137695
1782891271754881500,1.383881591796875,-0.07117806375026703,-0.34859082102775574,-1.6619353294372559
1782891271764903400,1.3939033203125,0.043707892298698425,-0.655684769153595,-1.6732200384140015
1782891271774925800,1.40392578125,0.11165311932563782,-0.8057802319526672,-1.6350483894348145
1782891271784947700,1.41394775390625,0.14119230210781097,-0.7327752709388733,-1.5200709104537964
1782891271794969600,1.423969482421875,0.175278902053833,-0.3434392511844635,-1.2814719676971436
1782891271804991700,1.43399169921875,0.22534984350204468,0.20089173316955566,-0.9702240824699402
1782891271815013600,1.444013671875,0.2667984962463379,0.7019671201705933,-0.6040069460868835
1782891271825035500,1.454035400390625,0.25676071643829346,1.150901198387146,-0.24282686412334442
1782891271835057700,1.4640576171875,0.2158614844083786,1.4748340845108032,0.049104321748018265
1782891271845079600,1.47407958984375,0.1366433948278427,1.6430081129074097,0.2679932415485382
1782891271855101700,1.484101806640625,0.022256625816226006,1.650124430656433,0.4163672626018524
1782891271865123800,1.494123779296875,-0.07596945017576218,1.5699176788330078,0.5115898251533508
1782891271875145700,1.504145751953125,-0.1538139134645462,1.434880256652832,0.5691423416137695
1782891271885167600,1.514167724609375,-0.18913380801677704,1.3116884231567383,0.6077629923820496
1782891271895189800,1.524189697265625,-0.20065224170684814,1.2551910877227783,0.6340680718421936
1782891271905211600,1.534211669921875,-0.20001694560050964,1.267979383468628,0.678004801273346
1782891271915233500,1.544233642578125,-0.19722089171409607,1.4116225242614746,0.7848768830299377
1782891271925255400,1.55425537109375,-0.18604561686515808,1.6700778007507324,0.9424182176589966
1782891271935277800,1.56427783203125,-0.1744408905506134,1.9346506595611572,1.1136356592178345
1782891271945299700,1.5742998046875,-0.16812804341316223,2.129823923110962,1.3152273893356323
1782891271955321600,1.584321533203125,-0.16101181507110596,2.2183971405029297,1.5195207595825195
1782891271965343700,1.59434375,-0.10412119328975677,2.160677909851074,1.6781538724899292
1782891271975365600,1.60436572265625,0.0009058887371793389,1.8652191162109375,1.7304048538208008
1782891271985387500,1.614387451171875,0.10049529373645782,1.4164793491363525,1.6242804527282715
1782891271995409700,1.62440966796875,0.23765261471271515,0.8928511142730713,1.3674166202545166
1782891272005431600,1.634431640625,0.38764509558677673,0.3804198205471039,1.0687391757965088
1782891272015453700,1.64445361328125,0.46433186531066895,-0.02141311764717102,0.803726315498352
1782891272025475800,1.654475830078125,0.5143770575523376,-0.2136503905057907,0.6366003155708313
1782891272035497700,1.664497802734375,0.5081695318222046,-0.19371210038661957,0.5610917210578918
1782891272045519600,1.67451953125,0.4351624846458435,-0.06168006360530853,0.5835708975791931
1782891272055541800,1.684541748046875,0.3430415987968445,0.1894371211528778,0.6817342042922974
1782891272065563600,1.694563720703125,0.2592986226081848,0.5420671701431274,0.7963477969169617
1782891272075585500,1.70458544921875,0.2096990942955017,0.8642622828483582,0.8538100123405457
1782891272085607400,1.714607421875,0.18772241473197937,1.092553973197937,0.8236438035964966
1782891272095629600,1.724629638671875,0.1516171395778656,1.1136765480041504,0.7136682868003845
1782891272105651700,1.734651611328125,0.08119111508131027,0.95450758934021,0.6137194037437439
1782891272115673600,1.744673583984375,-0.04014410451054573,0.6308286190032959,0.5539487600326538
1782891272125695700,1.75469580078125,-0.20042107999324799,0.28296053409576416,0.5078177452087402
1782891272135717600,1.764717529296875,-0.35471826791763306,0.0317341573536396,0.43609535694122314
1782891272145739500,1.774739501953125,-0.4784625470638275,-0.07180288434028625,0.3926599323749542
1782891272155761700,1.78476171875,-0.5398097634315491,-0.021805230528116226,0.4164970815181732
1782891272165783600,1.794783447265625,-0.5468623638153076,0.12740883231163025,0.43108031153678894
1782891272175805700,1.8048056640625,-0.5340006351470947,0.3599779009819031,0.35254982113838196
1782891272185827800,1.814827880859375,-0.5627235174179077,0.5526396036148071,0.19034087657928467
1782891272195849700,1.824849609375,-0.6371157765388489,0.6817640066146851,-0.015131312422454357
1782891272205871600,1.83487158203125,-0.6940884590148926,0.6247326135635376,-0.18018874526023865
1782891272215893800,1.844893798828125,-0.7506335377693176,0.44870832562446594,-0.26483678817749023
1782891272225915600,1.85491552734375,-0.7726393938064575,0.24034085869789124,-0.33801546692848206
1782891272235937500,1.8649375,-0.7583877444267273,0.06296686828136444,-0.4100976586341858
1782891272245959700,1.874959716796875,-0.7118915319442749,-0.05944051593542099,-0.4757012724876404
1782891272255981600,1.884981689453125,-0.6400945782661438,-0.11117295175790787,-0.5006244778633118
1782891272266003700,1.895003662109375,-0.5543148517608643,-0.06436087191104889,-0.4621714651584625
1782891272276025600,1.905025634765625,-0.48170745372772217,0.06449324637651443,-0.37687763571739197
1782891272286047700,1.9150478515625,-0.4557022750377655,0.2647973597049713,-0.25129541754722595
1782891272296069600,1.925069580078125,-0.47797057032585144,0.47948089241981506,-0.11238361895084381
1782891272306091500,1.935091552734375,-0.4944535791873932,0.6983575820922852,0.004875058773905039
1782891272316113700,1.94511376953125,-0.4720073938369751,0.8558253049850464,0.06529046595096588
1782891272326135300,1.95513525390625,-0.4242132306098938,0.9606842398643494,0.07403676956892014
1782891272336157400,1.965157470703125,-0.3825342357158661,0.9961639046669006,0.06075558811426163
1782891272346179600,1.9751796875,-0.36698856949806213,0.9416640996932983,0.04894581064581871
1782891272356201500,1.985201416015625,-0.3651677668094635,0.8655331134796143,0.08275490254163742
1782891272366223400,1.995223388671875,-0.3462764322757721,0.8528435230255127,0.13651087880134583
1782891272376245500,2.00524560546875,-0.3054925203323364,0.9039757251739502,0.18400463461875916
1782891272386267400,2.015267333984375,-0.26268434524536133,0.9957235455513,0.2523701786994934
1782891272396289300,2.025289306640625,-0.22866220772266388,1.095615267753601,0.32586464285850525
1782891272406311400,2.0353115234375,-0.19007720053195953,1.1495672464370728,0.40417346358299255
1782891272416333300,2.045333251953125,-0.15497887134552002,1.1559040546417236,0.521344006061554
1782891272426355500,2.05535546875,-0.07156117260456085,1.1220213174819946,0.6632910370826721
1782891272436377600,2.065377685546875,0.04321334511041641,1.0411975383758545,0.7904899716377258
1782891272446399500,2.0753994140625,0.15673162043094635,0.9097079634666443,0.8812347650527954
1782891272456421400,2.08542138671875,0.25210875272750854,0.7149483561515808,0.9245838522911072
1782891272466443500,2.095443603515625,0.31059327721595764,0.5136298537254333,0.9446788430213928
1782891272476465400,2.10546533203125,0.3461821377277374,0.3191405236721039,0.9253293871879578
1782891272486487300,2.1154873046875,0.40346530079841614,0.11611651629209518,0.8551565408706665
1782891272496509400,2.125509521484375,0.45281848311424255,-0.06548949331045151,0.7626063823699951
1782891272506531600,2.135531494140625,0.4683808982372284,-0.19615329802036285,0.6713417172431946
1782891272516553500,2.145553466796875,0.42963483929634094,-0.27846843004226685,0.6481253504753113
1782891272526575400,2.155575439453125,0.35912641882896423,-0.36817675828933716,0.6284394860267639
1782891272536597500,2.165597412109375,0.27904489636421204,-0.3919665217399597,0.6089576482772827
1782891272546619400,2.175619384765625,0.20340460538864136,-0.3579174876213074,0.5926439762115479
1782891272556641300,2.185641357421875,0.14281955361366272,-0.3180057406425476,0.5624970197677612
1782891272566663400,2.195663330078125,0.11306527256965637,-0.29913631081581116,0.5219870209693909
1782891272576685300,2.205685302734375,0.10436712205410004,-0.31984105706214905,0.4691256582736969
1782891272586707500,2.21570751953125,0.10394740104675293,-0.41607996821403503,0.39422744512557983
1782891272596729600,2.2257294921875,0.09716060757637024,-0.6074187755584717,0.3070206344127655
1782891272606751500,2.23575146484375,0.03736115247011185,-0.8702039122581482,0.19840869307518005
1782891272616773400,2.2457734375,-0.03925825655460358,-1.13237726688385,0.07785379886627197
1782891272626795500,2.25579541015625,-0.07411973178386688,-1.2736324071884155,-0.04465729370713234
1782891272636817400,2.2658173828125,-0.09898007661104202,-1.2891255617141724,-0.15296246111392975
1782891272646839300,2.27583935546875,-0.09849604219198227,-1.1852531433105469,-0.24852454662322998
1782891272656861400,2.285861328125,-0.05539943650364876,-1.0591527223587036,-0.3800034821033478
1782891272666883600,2.295883544921875,-0.0038537236396223307,-1.012749433517456,-0.5090152025222778
1782891272676905500,2.305905517578125,-0.007654586806893349,-1.0750644207000732,-0.571979284286499
1782891272686927400,2.31592724609375,-0.0540211983025074,-1.145072102546692,-0.5795512795448303
1782891272696949500,2.325949462890625,-0.10101000964641571,-1.1454936265945435,-0.565150797367096
1782891272706971400,2.335971435546875,-0.15949296951293945,-1.0214312076568604,-0.6023415923118591
1782891272716993300,2.3459931640625,-0.20719072222709656,-0.7746421694755554,-0.7115676403045654
1782891272727015400,2.356015380859375,-0.24938692152500153,-0.47445914149284363,-0.8445078730583191
1782891272737037300,2.366037353515625,-0.2991853654384613,-0.13733917474746704,-0.8808216452598572
1782891272747059500,2.3760595703125,-0.32494133710861206,0.1674262434244156,-0.8149198293685913
1782891272757081600,2.38608154296875,-0.3210158348083496,0.45708519220352173,-0.7034428715705872
1782891272767104500,2.3961044921875,-0.29599010944366455,0.6811477541923523,-0.6072143316268921
1782891272777125400,2.40612548828125,-0.24915871024131775,0.8440706729888916,-0.5500301718711853
1782891272787148500,2.4161484375,-0.18512995541095734,0.9523289203643799,-0.5013166666030884
1782891272797170400,2.42617041015625,-0.12829676270484924,1.027573585510254,-0.4594547152519226
1782891272807192300,2.4361923828125,-0.10566037148237228,1.0696815252304077,-0.43524765968322754
1782891272817214500,2.44621435546875,-0.11260749399662018,1.079807996749878,-0.40284231305122375
1782891272827236400,2.456236328125,-0.14529331028461456,1.1126128435134888,-0.34075814485549927
1782891272837258200,2.46625830078125,-0.15418800711631775,1.2085957527160645,-0.2675268054008484
1782891272847280400,2.4762802734375,-0.1134745180606842,1.3594651222229004,-0.1621544361114502
1782891272857302500,2.486302490234375,-0.051732324063777924,1.5114789009094238,0.015078926458954811
1782891272867324400,2.496324462890625,0.013490390032529831,1.6200695037841797,0.24263718724250793
1782891272877346600,2.5063466796875,0.0635032206773758,1.6874549388885498,0.49276551604270935
1782891272887368400,2.516368408203125,0.10497969388961792,1.7150230407714844,0.7196933627128601
1782891272897390300,2.526390380859375,0.13640685379505157,1.7046571969985962,0.8904653787612915
1782891272907412500,2.53641259765625,0.1721455156803131,1.6253165006637573,1.0040855407714844
1782891272917434400,2.546434326171875,0.2272990494966507,1.5067397356033325,1.0619499683380127
1782891272927456300,2.556456298828125,0.2692537009716034,1.345007061958313,1.0865123271942139
1782891272937478700,2.566478759765625,0.29754310846328735,1.19991934299469,1.0809733867645264
1782891272947500500,2.57650048828125,0.35268816351890564,1.0170632600784302,1.1351908445358276
1782891272957522400,2.5865224609375,0.2657490074634552,0.7382010221481323,1.1511976718902588
1782891272967544300,2.59654443359375,0.14677852392196655,0.502338707447052,1.0684739351272583
1782891272977566500,2.60656640625,0.08861827850341797,0.3853777348995209,0.9874729514122009
1782891272987588400,2.61658837890625,0.000472024898044765,0.3126864731311798,0.953365683555603
1782891272997610200,2.6266103515625,-0.0753931775689125,0.25085505843162537,1.0201112031936646
1782891273007632400,2.63663232421875,-0.13136492669582367,0.24337594211101532,1.184751033782959
1782891273017654500,2.646654541015625,-0.16424910724163055,0.3165510892868042,1.3448379039764404
1782891273027676400,2.656676513671875,-0.18023322522640228,0.5681208968162537,1.3732142448425293
1782891273037698600,2.666698486328125,-0.1030348390340805,0.7263182401657104,1.3591368198394775
1782891273047720400,2.676720458984375,0.07355225831270218,0.54610675573349,1.534037709236145
1782891273057742300,2.686742431640625,0.10175460577011108,0.13114874064922333,1.5281137228012085
1782891273067764500,2.696764404296875,0.09422501921653748,-0.21379761397838593,1.3079034090042114
1782891273077786400,2.706786376953125,0.24207918345928192,-0.35824108123779297,1.10456383228302
1782891273087808300,2.716808349609375,0.3472180962562561,-0.43980124592781067,0.8900553584098816
1782891273097830700,2.72683056640625,0.4278777837753296,-0.42722898721694946,0.723863422870636
1782891273107852500,2.7368525390625,0.44816669821739197,-0.40217626094818115,0.5961942672729492
1782891273117874400,2.74687451171875,0.40328580141067505,-0.4547060430049896,0.5005811452865601
1782891273127896600,2.756896484375,0.33373120427131653,-0.6127760410308838,0.42998766899108887
1782891273137918500,2.76691845703125,0.23612502217292786,-0.8547934889793396,0.33548834919929504
1782891273147940400,2.7769404296875,0.12249559164047241,-1.0128517150878906,0.21219447255134583
1782891273157962200,2.786962158203125,0.046021051704883575,-1.0336525440216064,0.016985559836030006
1782891273167984400,2.796984375,0.015487502329051495,-0.9529126286506653,-0.235938161611557
1782891273178006500,2.807006591796875,-0.03310399875044823,-0.746340274810791,-0.4612218737602234
1782891273188028400,2.8170283203125,-0.1318672150373459,-0.510601818561554,-0.603334903717041
1782891273198050600,2.827050537109375,-0.2298198789358139,-0.2803494334220886,-0.7074881792068481
1782891273208072400,2.837072509765625,-0.3046567440032959,-0.07893228530883789,-0.8212686777114868
1782891273218094300,2.84709423828125,-0.306965172290802,0.048845112323760986,-0.8950341939926147
1782891273228116500,2.857116455078125,-0.23727217316627502,0.06784572452306747,-0.9515610933303833
1782891273238138400,2.867138427734375,-0.13160674273967743,-0.02874978631734848,-0.9559630751609802
1782891273248160300,2.87716015625,-0.04811845347285271,-0.21013663709163666,-0.9022769331932068
1782891273258182400,2.887182373046875,-0.011096518486738205,-0.4257728159427643,-0.8473572731018066
1782891273268204500,2.89720458984375,0.015065249055624008,-0.5633770823478699,-0.8217554092407227
1782891273278226400,2.907226318359375,0.059333909302949905,-0.5638271570205688,-0.8435121178627014
1782891273288248600,2.91724853515625,0.11031091213226318,-0.514421284198761,-0.9225388765335083
1782891273298270500,2.9272705078125,0.1432155966758728,-0.44806385040283203,-1.00880765914917
1782891273308292400,2.937292236328125,0.14812088012695312,-0.3810754120349884,-1.1113684177398682
1782891273318314500,2.947314453125,0.12424032390117645,-0.3744300305843353,-1.1453399658203125
1782891273328336100,2.957336181640625,0.1137017011642456,-0.39620882272720337,-1.029404640197754
1782891273338358300,2.967358154296875,0.17721116542816162,-0.40972834825515747,-0.8032671213150024
1782891273348380200,2.977380126953125,0.2862446904182434,-0.3116101324558258,-0.5250964760780334
1782891273358402300,2.98740234375,0.4201263189315796,-0.15726453065872192,-0.25843921303749084
1782891273368424200,2.997424072265625,0.5464637875556946,0.013378736563026905,-0.04093967750668526
1782891273378446000,3.007446044921875,0.6156063675880432,0.2380741536617279,0.14468692243099213
1782891273388468200,3.01746826171875,0.6325310468673706,0.4281339645385742,0.2667102515697479
1782891273398490000,3.027489990234375,0.6032000184059143,0.5169945955276489,0.32898348569869995
1782891273408512000,3.037511962890625,0.5332500338554382,0.5117685794830322,0.369992196559906
1782891273418534400,3.047534423828125,0.45057055354118347,0.44792115688323975,0.41445741057395935
1782891273428556300,3.057556396484375,0.39117395877838135,0.3479946255683899,0.4435988664627075
1782891273438578200,3.067578125,0.37542909383773804,0.2036997526884079,0.43251824378967285
1782891273448600300,3.077600341796875,0.3817444443702698,0.009415442124009132,0.39877739548683167
1782891273458622200,3.087622314453125,0.3802163302898407,-0.18163786828517914,0.3655661642551422
1782891273468644000,3.09764404296875,0.37131407856941223,-0.3495763838291168,0.3413781225681305
1782891273478666000,3.107666015625,0.3170654773712158,-0.47654470801353455,0.2985731363296509
1782891273488688000,3.117688232421875,0.25163888931274414,-0.543403148651123,0.2352505475282669
1782891273498710300,3.127710205078125,0.20639711618423462,-0.534899115562439,0.21664676070213318
1782891273508732200,3.137732177734375,0.15152108669281006,-0.5147150158882141,0.21607285737991333
1782891273518754300,3.14775439453125,0.10986018180847168,-0.4177195429801941,0.262876033782959
1782891273528776200,3.157776123046875,0.07559171319007874,-0.30184608697891235,0.32356390357017517
1782891273538798000,3.167798095703125,0.033402979373931885,-0.2620163857936859,0.40126773715019226
1782891273548820200,3.1778203125,-0.03873772174119949,-0.21808156371116638,0.48010119795799255
1782891273558842000,3.187842041015625,-0.14718058705329895,-0.23672156035900116,0.5139172077178955
1782891273568864000,3.197864013671875,-0.2617185711860657,-0.2624762952327728,0.5027419924736023
1782891273578886100,3.20788623046875,-0.37592557072639465,-0.19785231351852417,0.4788913130760193
1782891273588908300,3.217908203125,-0.44564637541770935,-0.13466700911521912,0.4222560524940491
1782891273598930200,3.22793017578125,-0.44941553473472595,-0.037675753235816956,0.3411191403865814
1782891273608952300,3.237952392578125,-0.46831393241882324,0.0645635724067688,0.23473814129829407
1782891273618974200,3.24797412109375,-0.5079910755157471,0.12255657464265823,0.07907477766275406
1782891273628996000,3.25799609375,-0.5376257300376892,0.018328048288822174,-0.15867406129837036
1782891273639018200,3.268018310546875,-0.5164538621902466,-0.2647782266139984,-0.42268067598342896
1782891273649040100,3.2780400390625,-0.44643545150756836,-0.6916727423667908,-0.6096182465553284
1782891273659062300,3.288062255859375,-0.3581079840660095,-1.1756227016448975,-0.6084120869636536
1782891273669084200,3.298084228515625,-0.2879735827445984,-1.4673177003860474,-0.42099112272262573
1782891273679106300,3.308106201171875,-0.2876790463924408,-1.3932634592056274,-0.19610285758972168
1782891273689128200,3.318128173828125,-0.36343857645988464,-0.9272201061248779,-0.1258174628019333
1782891273699150000,3.328150146484375,-0.4568963646888733,-0.2511940002441406,-0.26875171065330505
1782891273709172200,3.338172119140625,-0.49991869926452637,0.4635079503059387,-0.5175219774246216
1782891273719194000,3.348194091796875,-0.4454866349697113,1.0372025966644287,-0.6901201009750366
1782891273729216000,3.358216064453125,-0.3256290853023529,1.2408957481384277,-0.7343581318855286
1782891273739238100,3.368238037109375,-0.24262338876724243,1.11118745803833,-0.6743669509887695
1782891273749260300,3.37826025390625,-0.21662911772727966,0.8142533898353577,-0.5633857846260071
1782891273759282200,3.3882822265625,-0.2147129625082016,0.498704195022583,-0.4430801570415497
1782891273769304300,3.39830419921875,-0.17459528148174286,0.2508159577846527,-0.3512387275695801
1782891273779326200,3.408326171875,-0.10078418254852295,0.0855681449174881,-0.281276136636734
1782891273789348000,3.41834814453125,-0.04129356890916824,0.06964041292667389,-0.21804670989513397
1782891273799370200,3.428370361328125,0.019189482554793358,0.1833384782075882,-0.15247489511966705
1782891273809392000,3.43839208984375,0.07443869113922119,0.355581670999527,-0.11622507125139236
1782891273819414000,3.4484140625,0.11618746817111969,0.5312456488609314,-0.11610949039459229
1782891273829436400,3.4584365234375,0.13741812109947205,0.6843440532684326,-0.12086503207683563
1782891273839458300,3.468458251953125,0.13970337808132172,0.7545732259750366,-0.10769623517990112
1782891273849480200,3.478480224609375,0.13709625601768494,0.7508273124694824,-0.0506591722369194
1782891273859502000,3.488502197265625,0.1365380585193634,0.6692637205123901,0.05286934971809387
1782891273869524200,3.498524169921875,0.1617300659418106,0.5520076155662537,0.2537458837032318
1782891273879546000,3.508546142578125,0.24563907086849213,0.4111964702606201,0.5049844980239868
1782891273889568000,3.518568115234375,0.419556200504303,0.2379603385925293,0.7295647263526917
1782891273899590100,3.528590087890625,0.5914688110351562,0.04001717269420624,0.8853039741516113
1782891273909612300,3.5386123046875,0.7044172883033752,-0.15549731254577637,0.9581032991409302
1782891273919634200,3.54863427734375,0.7583675980567932,-0.3426309823989868,0.9529895186424255
1782891273929656300,3.55865625,0.7742388844490051,-0.50825434923172,0.8952837586402893
1782891273939678200,3.56867822265625,0.7726620435714722,-0.618305504322052,0.8231863975524902
1782891273949700000,3.5787001953125,0.7626428008079529,-0.6523373126983643,0.7505751252174377
1782891273959722200,3.58872216796875,0.7384828329086304,-0.6335276365280151,0.6717751622200012
1782891273969744100,3.598744140625,0.6891070604324341,-0.5756356120109558,0.5984548330307007
1782891273979766000,3.60876611328125,0.6184717416763306,-0.5005719661712646,0.5357312560081482
1782891273989788400,3.618788330078125,0.5438010692596436,-0.45218226313591003,0.4913564622402191
1782891273999810300,3.628810302734375,0.4794948399066925,-0.4450223445892334,0.46685460209846497
1782891274009832200,3.638832275390625,0.42890194058418274,-0.4687937796115875,0.48594069480895996
1782891274019854000,3.64885400390625,0.3707236051559448,-0.5313882231712341,0.5459669828414917
1782891274029876200,3.658876220703125,0.3144274652004242,-0.6903639435768127,0.6036005616188049
1782891274039898000,3.668898193359375,0.24817921221256256,-0.932582437992096,0.6194514632225037
1782891274049921300,3.67892138671875,0.17040053009986877,-1.209718108177185,0.5616528391838074
1782891274059942100,3.688942138671875,0.06937596946954727,-1.4774750471115112,0.40952157974243164
1782891274069965000,3.698965087890625,-0.02722027152776718,-1.683105230331421,0.19146506488323212
1782891274079987200,3.7089873046875,-0.1220245435833931,-1.8625305891036987,-0.08678360283374786
1782891274090008300,3.71900830078125,-0.21382679045200348,-2.0139362812042236,-0.39491912722587585
1782891274100031200,3.72903125,-0.28303512930870056,-2.1477584838867188,-0.7421018481254578
1782891274110053400,3.739053466796875,-0.26179808378219604,-2.3711860179901123,-1.1841354370117188
1782891274120075300,3.7490751953125,-0.08492930233478546,-2.7546472549438477,-1.6716318130493164
1782891274130097200,3.75909716796875,0.14981818199157715,-3.134058713912964,-2.0759949684143066
1782891274140119000,3.769119140625,0.388022780418396,-3.410454750061035,-2.2923264503479004
1782891274150141200,3.77914111328125,0.6277976036071777,-3.547457456588745,-2.253899335861206
1782891274160163000,3.7891630859375,0.8927139043807983,-3.6086857318878174,-1.9855996370315552
1782891274170185200,3.799185302734375,1.034103274345398,-3.4201056957244873,-1.582274079322815
1782891274180207400,3.809207275390625,1.0481690168380737,-2.927238941192627,-1.0590689182281494
1782891274190229200,3.819229248046875,1.0018764734268188,-2.212216377258301,-0.5523735284805298
1782891274200251100,3.829251220703125,1.0978267192840576,-1.461042046546936,-0.2545892894268036
1782891274210273300,3.839273193359375,1.2385141849517822,-0.8287538290023804,-0.27243655920028687
1782891274220295200,3.849295166015625,1.3413751125335693,-0.4620235562324524,-0.5017922520637512
1782891274230317000,3.859317138671875,1.3555892705917358,-0.331949383020401,-0.8129177689552307
1782891274240339200,3.869339111328125,1.326889991760254,-0.3379595875740051,-1.159648060798645
1782891274250361000,3.879361083984375,1.3305422067642212,-0.45393335819244385,-1.4485602378845215
1782891274260383200,3.88938330078125,1.3986626863479614,-0.6262974739074707,-1.6566016674041748
1782891274270405400,3.8994052734375,1.4868663549423218,-0.8281600475311279,-1.8143577575683594
1782891274280427300,3.90942724609375,1.529514193534851,-1.0197380781173706,-1.9367082118988037
1782891274290449200,3.91944921875,1.5031037330627441,-1.1503130197525024,-2.015289783477783
1782891274300471000,3.929470947265625,1.4129009246826172,-1.1996368169784546,-2.0291593074798584
1782891274310493200,3.9394931640625,1.2785215377807617,-1.120944619178772,-1.9392435550689697
1782891274320515000,3.94951513671875,1.0869014263153076,-0.9098168611526489,-1.718801498413086
1782891274330537200,3.959537109375,0.8710289597511292,-0.5617692470550537,-1.3329150676727295
1782891274340559400,3.969559326171875,0.6405277848243713,-0.17261506617069244,-0.8078742623329163
1782891274350581200,3.979581298828125,0.3876974284648895,0.14730194211006165,-0.1926124095916748
1782891274360603400,3.989603271484375,0.16358350217342377,0.25495579838752747,0.43539705872535706
1782891274370625300,3.999625244140625,0.030267778784036636,0.0799509584903717,0.9653685092926025
1782891274380647200,4.009647216796875,0.012853289023041725,-0.3186069428920746,1.3361676931381226
1782891274390669300,4.01966943359375,0.061349716037511826,-0.7821930050849915,1.5779187679290771
1782891274400691200,4.029691162109375,0.14975842833518982,-1.285334587097168,1.672141194343567
1782891274410713000,4.039713134765625,0.2813414931297302,-1.8172274827957153,1.5193595886230469
1782891274420735200,4.0497353515625,0.5303996205329895,-2.204766035079956,1.192701816558838
1782891274430757400,4.05975732421875,0.8245910406112671,-2.371859550476074,0.827201783657074
1782891274440779300,4.069779296875,1.0257673263549805,-2.3625144958496094,0.43981945514678955
1782891274450801400,4.079801513671875,1.1777520179748535,-2.1834089756011963,0.0775429904460907
1782891274460823300,4.0898232421875,1.3275189399719238,-1.9281972646713257,-0.20667749643325806
1782891274470845200,4.09984521484375,1.457085371017456,-1.5988808870315552,-0.427467942237854
1782891274480867300,4.109867431640625,1.5331203937530518,-1.2614985704421997,-0.609743595123291
1782891274490889200,4.11988916015625,1.5187970399856567,-0.9695754051208496,-0.6943866014480591
1782891274500911400,4.129911376953125,1.3288155794143677,-0.7146034836769104,-0.6119517087936401
1782891274510933200,4.139933349609375,0.9720137119293213,-0.5671319961547852,-0.3782937228679657
1782891274520955400,4.149955322265625,0.6090461015701294,-0.5534607768058777,-0.07906483113765717
1782891274530977300,4.159977294921875,0.35507747530937195,-0.6256002187728882,0.17624975740909576
1782891274540999200,4.169999267578125,0.24448274075984955,-0.8149290680885315,0.3514988422393799
1782891274551021300,4.180021240234375,0.20678488910198212,-1.070073127746582,0.42488089203834534
1782891274561043200,4.190043212890625,0.07217457890510559,-1.3878140449523926,0.30929043889045715
1782891274571065000,4.200065185546875,-0.12774677574634552,-1.5673854351043701,-0.02901783399283886
1782891274581087200,4.210087158203125,-0.2501474618911743,-1.460931658744812,-0.5068662166595459
1782891274591109400,4.220109375,-0.23195327818393707,-1.0620386600494385,-0.9971155524253845
1782891274601131300,4.23013134765625,-0.14386947453022003,-0.4502820670604706,-1.4332964420318604
1782891274611153400,4.2401533203125,-0.3252730667591095,0.42353489995002747,-1.6164404153823853
1782891274621175300,4.25017529296875,-0.538619339466095,1.312918782234192,-1.591557502746582
1782891274631197200,4.260197265625,-0.8381099104881287,1.944662094116211,-1.4374417066574097
1782891274641219300,4.27021923828125,-1.1344414949417114,2.315079689025879,-1.1844555139541626
1782891274651241200,4.2802412109375,-1.2954766750335693,2.4411745071411133,-0.9404065608978271
1782891274661263000,4.29026318359375,-1.2984683513641357,2.36812162399292,-0.7048780918121338
1782891274671285200,4.30028515625,-1.1976338624954224,2.117408514022827,-0.4555327296257019
1782891274681307400,4.310307373046875,-1.0403780937194824,1.75121009349823,-0.20647089183330536
1782891274691329300,4.320329345703125,-0.9056452512741089,1.2984817028045654,0.023181483149528503
1782891274701351200,4.33035107421875,-0.8356906175613403,0.8555334210395813,0.17554564774036407
1782891274711373300,4.340373291015625,-0.8084981441497803,0.5289970636367798,0.23578794300556183
1782891274721395200,4.350395263671875,-0.8056303858757019,0.34470248222351074,0.22188222408294678
1782891274731418400,4.36041845703125,-0.8058546185493469,0.30539265275001526,0.16948212683200836
1782891274741440300,4.370440185546875,-0.7970414161682129,0.3755497932434082,0.08928286284208298
1782891274751462100,4.380462158203125,-0.7800325751304626,0.5571818947792053,-0.009125464595854282
1782891274761484300,4.390484375,-0.7675313353538513,0.7905406355857849,-0.09179382771253586
1782891274771506400,4.40050634765625,-0.7397468686103821,1.016439437866211,-0.14578649401664734
1782891274781528300,4.4105283203125,-0.7022426724433899,1.1932464838027954,-0.16249243915081024
1782891274791550200,4.42055029296875,-0.6545366644859314,1.3228524923324585,-0.13542167842388153
1782891274801572400,4.430572265625,-0.5918117165565491,1.4080005884170532,-0.053066402673721313
1782891274811594200,4.44059423828125,-0.5267035961151123,1.4304231405258179,0.0867956280708313
1782891274821616000,4.4506162109375,-0.5233244299888611,1.3705589771270752,0.28478264808654785
1782891274831638300,4.46063818359375,-0.5783469676971436,1.2607462406158447,0.5043259263038635
1782891274841660200,4.47066015625,-0.6403833627700806,1.1117380857467651,0.7308109402656555
1782891274851682300,4.480682373046875,-0.67597496509552,0.9712273478507996,0.9375481605529785
1782891274861704400,4.490704345703125,-0.6697043180465698,0.8533613085746765,1.1258255243301392
1782891274871726300,4.500726318359375,-0.6438804268836975,0.7513209581375122,1.259446144104004
1782891274881748200,4.510748291015625,-0.61078941822052,0.6635841727256775,1.3140112161636353
1782891274891770400,4.520770263671875,-0.5645300149917603,0.5909600257873535,1.2985955476760864
1782891274901792300,4.530792236328125,-0.5110082626342773,0.5239565968513489,1.245675802230835
1782891274911814100,4.540814208984375,-0.46178632974624634,0.4453515410423279,1.1688529253005981
1782891274921836300,4.550836181640625,-0.43272095918655396,0.3793339431285858,1.0849844217300415
1782891274931858200,4.560858154296875,-0.4353918433189392,0.3395654857158661,1.0131280422210693
1782891274941880300,4.57088037109375,-0.4605647921562195,0.3358490467071533,0.9391078948974609
1782891274951902200,4.580902099609375,-0.4971068203449249,0.38697561621665955,0.8767382502555847
1782891274961924400,4.59092431640625,-0.5086121559143066,0.4412240982055664,0.84125155210495
1782891274971946200,4.6009462890625,-0.5072299838066101,0.43901553750038147,0.8393386006355286
1782891274981968100,4.610968017578125,-0.5124301910400391,0.4155344069004059,0.899328887462616
1782891274991990300,4.620990234375,-0.5414477586746216,0.42284107208251953,0.9886294603347778
1782891275002012200,4.63101220703125,-0.5723550915718079,0.4791424572467804,1.0643386840820312
1782891275012034300,4.641034423828125,-0.5920856595039368,0.4976192116737366,1.0766582489013672
1782891275022056400,4.651056396484375,-0.5625903606414795,0.38162434101104736,0.979665994644165
1782891275032078300,4.661078369140625,-0.49411457777023315,0.13516847789287567,0.7728630304336548
1782891275042100200,4.671100341796875,-0.4084746241569519,-0.09571821242570877,0.4823352098464966
1782891275052122400,4.681122314453125,-0.2996213734149933,-0.21915467083454132,0.18139000236988068
1782891275062144300,4.691144287109375,-0.1898553967475891,-0.2760961949825287,-0.13354988396167755
1782891275072166100,4.701166259765625,-0.09671691805124283,-0.3407854437828064,-0.49593526124954224
1782891275082188300,4.711188232421875,-0.047853343188762665,-0.4160148799419403,-0.8687580227851868
1782891275092210200,4.721210205078125,-0.06858178973197937,-0.448432981967926,-1.1979209184646606
1782891275102232300,4.731232421875,-0.1262795627117157,-0.411373108625412,-1.4513051509857178
1782891275112254500,4.74125439453125,-0.19431374967098236,-0.2816060483455658,-1.6311033964157104
1782891275122276400,4.7512763671875,-0.26025891304016113,-0.08556874096393585,-1.740432620048523
1782891275132298200,4.76129833984375,-0.24657398462295532,0.13024212419986725,-1.7811609506607056
1782891275142320000,4.771320068359375,-0.16596254706382751,0.3779342472553253,-1.7061467170715332
1782891275152342300,4.78134228515625,-0.0208668764680624,0.5597213506698608,-1.5115737915039062
1782891275162364200,4.7913642578125,0.15260867774486542,0.5971526503562927,-1.256447196006775
1782891275172386000,4.801385986328125,0.31639838218688965,0.4702998399734497,-1.009509801864624
1782891275182408400,4.811408447265625,0.46444547176361084,0.22461430728435516,-0.8102439641952515
1782891275192430300,4.821430419921875,0.6070510745048523,-0.06564228981733322,-0.684382438659668
1782891275202452200,4.8314521484375,0.7208739519119263,-0.32038041949272156,-0.5982876420021057
1782891275212474400,4.841474365234375,0.8090016841888428,-0.506584644317627,-0.5280179977416992
1782891275222496300,4.851496337890625,0.8554610013961792,-0.5693914890289307,-0.4535452723503113
1782891275232518100,4.86151806640625,0.852345883846283,-0.5171935558319092,-0.40796127915382385
1782891275242540300,4.871540283203125,0.8258206248283386,-0.43102672696113586,-0.39442265033721924
1782891275252562200,4.881562255859375,0.7639159560203552,-0.2541765868663788,-0.3684818744659424
1782891275262584300,4.891584228515625,0.6569702625274658,0.02726111374795437,-0.31650039553642273
1782891275272606500,4.9016064453125,0.5362880825996399,0.3400712311267853,-0.22664666175842285
1782891275282628400,4.91162841796875,0.41781315207481384,0.5889197587966919,-0.11832661181688309
1782891275292650200,4.921650146484375,0.3134515881538391,0.7109344005584717,0.015465806238353252
1782891275302672400,4.93167236328125,0.22199654579162598,0.7238848805427551,0.18234765529632568
1782891275312694300,4.9416943359375,0.1847117692232132,0.6439146995544434,0.3745104670524597
1782891275322716200,4.951716064453125,0.20096896588802338,0.5035737156867981,0.5721293091773987
1782891275332738300,4.96173828125,0.2126764953136444,0.34079059958457947,0.7590965628623962
1782891275342760400,4.971760498046875,0.20139795541763306,0.19491848349571228,0.8893547654151917
1782891275352782600,4.981782470703125,0.16930633783340454,0.07563763111829758,0.9315503835678101
1782891275362804500,4.991804443359375,0.12509667873382568,-0.0255559291690588,0.8902906775474548
1782891275372826400,5.001826416015625,0.09417738020420074,-0.10366830974817276,0.769905686378479
1782891275382848500,5.0118486328125,0.07685183733701706,-0.16678161919116974,0.5762732028961182
1782891275392870400,5.021870361328125,0.06368649750947952,-0.20079924166202545,0.33873066306114197
1782891275402892300,5.031892333984375,0.014376246370375156,-0.1785350739955902,0.11631567776203156
1782891275412914200,5.0419140625,-0.06580355018377304,-0.114380843937397,-0.057124555110931396
1782891275422936300,5.051936279296875,-0.14388561248779297,-0.006184311117976904,-0.14761792123317719
1782891275432958500,5.06195849609375,-0.2027483880519867,0.07292249798774719,-0.15884260833263397
1782891275442980400,5.07198046875,-0.24825319647789001,0.11024271696805954,-0.11936748772859573
1782891275453002500,5.08200244140625,-0.31167078018188477,0.11593043059110641,-0.0425398163497448
1782891275463024400,5.0920244140625,-0.40107595920562744,0.08560100197792053,0.056816548109054565
1782891275473046300,5.10204638671875,-0.4906540513038635,0.06961990147829056,0.14281907677650452
1782891275483068400,5.112068359375,-0.5270269513130188,0.04723770171403885,0.17561082541942596
1782891275493090300,5.12209033203125,-0.48620229959487915,-0.025098809972405434,0.13281595706939697
1782891275503112200,5.1321123046875,-0.39250048995018005,-0.1372516006231308,0.012022353708744049
1782891275513134600,5.142134521484375,-0.28180834650993347,-0.2605149447917938,-0.12078496068716049
1782891275523156500,5.152156494140625,-0.2660987973213196,-0.35484302043914795,-0.22090421617031097
1782891275533178400,5.162178466796875,-0.35951635241508484,-0.42674410343170166,-0.2871047854423523
1782891275543200500,5.172200439453125,-0.41394656896591187,-0.45521479845046997,-0.3255653381347656
1782891275553222400,5.182222412109375,-0.3913014531135559,-0.40192362666130066,-0.4100346863269806
1782891275563244300,5.192244384765625,-0.3427080810070038,-0.23765920102596283,-0.6096010804176331
1782891275573266400,5.202266357421875,-0.355510950088501,0.03994763642549515,-0.8640879392623901
1782891275583288300,5.212288330078125,-0.5896258354187012,0.5131452679634094,-1.053964614868164
1782891275593310500,5.222310546875,-0.9087787866592407,1.1599500179290771,-1.1493771076202393
1782891275603332400,5.232332275390625,-1.1715445518493652,1.8123726844787598,-1.1570184230804443
1782891275613354500,5.2423544921875,-1.3078118562698364,2.337498426437378,-1.0957998037338257
1782891275623376400,5.25237646484375,-1.2960139513015747,2.6305091381073,-0.9543992877006531
1782891275633398300,5.262398193359375,-1.162763237953186,2.659623861312866,-0.7130959033966064
1782891275643420400,5.27242041015625,-0.9714090824127197,2.4401121139526367,-0.3749690651893616
1782891275653442300,5.2824423828125,-0.763674795627594,2.018585443496704,0.020354559645056725
1782891275663464200,5.292464111328125,-0.5701940059661865,1.4857959747314453,0.39897745847702026
1782891275673486600,5.302486572265625,-0.4044724106788635,0.9469266533851624,0.6986920237541199
1782891275683508500,5.312508544921875,-0.2712165415287018,0.48038285970687866,0.9068325757980347
1782891275693530400,5.3225302734375,-0.1892620027065277,0.1600027233362198,1.0062310695648193
1782891275703552500,5.332552490234375,-0.17228662967681885,0.0895499587059021,0.9972401261329651
1782891275713574400,5.342574462890625,-0.21322101354599,0.25038623809814453,0.9117981791496277
1782891275723596300,5.35259619140625,-0.3039597272872925,0.6183165907859802,0.7648271918296814
1782891275733618400,5.362618408203125,-0.41737446188926697,1.0794861316680908,0.5294069647789001
1782891275743640300,5.372640380859375,-0.5058972239494324,1.517242670059204,0.2764357030391693
1782891275753662500,5.382662353515625,-0.530442476272583,1.877092957496643,0.11949963867664337
1782891275763684600,5.3926845703125,-0.5073442459106445,2.1661148071289062,0.10673927515745163
1782891275773706500,5.40270654296875,-0.4195350408554077,2.3373184204101562,0.20848987996578217
1782891275783728400,5.412728271484375,-0.2980616092681885,2.3564860820770264,0.3967990577220917
1782891275793750300,5.422750244140625,-0.1722453534603119,2.2817938327789307,0.6344358325004578
1782891275803772400,5.4327724609375,-0.06335557997226715,2.165818929672241,0.857671320438385
1782891275813794300,5.442794189453125,-0.0034752078354358673,2.040153741836548,1.0338964462280273
1782891275823816200,5.452816162109375,-0.007576538249850273,1.936714768409729,1.1793417930603027
1782891275833838300,5.46283837890625,-0.07401681691408157,1.8163646459579468,1.300837755203247
1782891275843860500,5.472860595703125,-0.19423943758010864,1.6393523216247559,1.4098252058029175
1782891275853882400,5.48288232421875,-0.347237229347229,1.4315022230148315,1.4962795972824097
1782891275863904500,5.492904541015625,-0.49033021926879883,1.2293459177017212,1.531739354133606
1782891275873926400,5.502926513671875,-0.5923242568969727,1.0397133827209473,1.5126298666000366
1782891275883948300,5.5129482421875,-0.6517053842544556,0.8644664287567139,1.4551600217819214
1782891275893970400,5.522970458984375,-0.6500001549720764,0.6509379148483276,1.3727754354476929
1782891275903992300,5.532992431640625,-0.5897384881973267,0.396515429019928,1.247776746749878
1782891275914014500,5.543014404296875,-0.4945419430732727,0.06974848359823227,1.1449768543243408
1782891275924036600,5.55303662109375,-0.3522200286388397,-0.33179178833961487,1.0859358310699463
1782891275934058500,5.56305859375,-0.19096696376800537,-0.7225670218467712,1.1111204624176025
1782891275944080400,5.573080322265625,-0.053571585565805435,-1.038831114768982,1.1606061458587646
1782891275954102300,5.583102294921875,0.027446303516626358,-1.2426893711090088,1.1465691328048706
1782891275964124400,5.59312451171875,0.0704720988869667,-1.4110103845596313,1.0376819372177124
1782891275974146300,5.603146240234375,0.13286863267421722,-1.5804604291915894,0.8083523511886597
1782891275984168200,5.613168212890625,0.2534976005554199,-1.8128836154937744,0.44658133387565613
1782891275994190300,5.6231904296875,0.4295906126499176,-2.166501522064209,-0.02142474241554737
1782891276004212500,5.63321240234375,0.6370353698730469,-2.6070501804351807,-0.5595912933349609
1782891276014234400,5.643234375,0.8588287234306335,-3.103693962097168,-1.146207571029663
1782891276024256500,5.653256591796875,1.0668531656265259,-3.5614593029022217,-1.777463436126709
1782891276034278400,5.6632783203125,1.3045146465301514,-3.963128089904785,-2.4444284439086914
1782891276044300300,5.67330029296875,1.5595637559890747,-4.414493083953857,-3.0607166290283203
1782891276054322400,5.683322509765625,1.855703592300415,-4.8776726722717285,-3.478562593460083
1782891276064344300,5.69334423828125,2.257228374481201,-5.214572429656982,-3.5779356956481934
1782891276074366200,5.7033662109375,2.758908987045288,-5.348152160644531,-3.3378243446350098
1782891276084388600,5.713388671875,3.1344783306121826,-5.131100177764893,-2.853663682937622
1782891276094410500,5.723410400390625,3.3092665672302246,-4.557024002075195,-2.384531021118164
1782891276104432400,5.733432373046875,3.3210930824279785,-3.7385776042938232,-2.050567865371704
1782891276114454500,5.74345458984375,3.0403664112091064,-2.90826678276062,-1.6923481225967407
1782891276124476400,5.753476318359375,2.6697094440460205,-2.0873589515686035,-1.3434851169586182
1782891276134498300,5.763498291015625,2.376201629638672,-1.4473263025283813,-1.1728006601333618
1782891276144520200,5.773520263671875,2.1765313148498535,-1.021059513092041,-1.2328726053237915
1782891276154542300,5.783542236328125,2.0815341472625732,-0.6999666690826416,-1.469495177268982
1782891276164564500,5.793564453125,2.0674779415130615,-0.4705490171909332,-1.7170289754867554
1782891276174586400,5.80358642578125,2.079167366027832,-0.300361305475235,-1.8648489713668823
1782891276184608500,5.8136083984375,2.0868146419525146,-0.2576427757740021,-1.8325364589691162
1782891276194630400,5.82363037109375,2.0644423961639404,-0.31283146142959595,-1.6368016004562378
1782891276204652300,5.83365234375,1.9685512781143188,-0.37662145495414734,-1.3782010078430176
1782891276214674400,5.84367431640625,1.816180944442749,-0.46760329604148865,-1.0633807182312012
1782891276224696300,5.8536962890625,1.5975232124328613,-0.5202836394309998,-0.7363057136535645
1782891276234718200,5.86371826171875,1.3616279363632202,-0.5668583512306213,-0.4011607766151428
1782891276244740600,5.87374072265625,1.1441407203674316,-0.5805789232254028,-0.04823753982782364
1782891276254762500,5.883762451171875,0.8928603529930115,-0.5573548078536987,0.28682994842529297
1782891276264784400,5.893784423828125,0.5938987135887146,-0.5341538786888123,0.547072172164917
1782891276274806500,5.903806640625,0.26914405822753906,-0.5020459890365601,0.7091603875160217
1782891276284828400,5.913828369140625,-0.07589730620384216,-0.456986665725708,0.750743567943573
1782891276294851300,5.923851318359375,-0.41165798902511597,-0.36414939165115356,0.6994723677635193
1782891276304872400,5.93387255859375,-0.7134667634963989,-0.22407041490077972,0.597897469997406
1782891276314894300,5.943894287109375,-0.9706506133079529,-0.042310748249292374,0.4823034703731537
1782891276324916700,5.953916748046875,-1.1653003692626953,0.1479482799768448,0.3939601182937622
1782891276334940000,5.96393994140625,-1.2773493528366089,0.30882930755615234,0.34603068232536316
1782891276344961800,5.9739619140625,-1.3157322406768799,0.43822431564331055,0.3299911320209503
1782891276354983700,5.983983642578125,-1.2920727729797363,0.5169348120689392,0.316116601228714
1782891276365006000,5.994006103515625,-1.2087982892990112,0.5322112441062927,0.28881439566612244
1782891276375028000,6.004028076171875,-1.0750746726989746,0.45933014154434204,0.22400878369808197
1782891276385049900,6.0140498046875,-0.9107354879379272,0.3104647397994995,0.1069907695055008
1782891276395072000,6.024072021484375,-0.7271893620491028,0.11597169190645218,-0.007540871389210224
1782891276405094000,6.034093994140625,-0.5695223212242126,-0.09754330664873123,-0.11146880686283112
1782891276415115800,6.04411572265625,-0.43314558267593384,-0.271793931722641,-0.20913144946098328
1782891276425138000,6.054137939453125,-0.3300585150718689,-0.3636047840118408,-0.30038952827453613
1782891276435159800,6.064159912109375,-0.2680894136428833,-0.45221906900405884,-0.36997872591018677
1782891276445182000,6.074181884765625,-0.22414657473564148,-0.6106866598129272,-0.416096031665802
1782891276455204000,6.0842041015625,-0.13440071046352386,-0.8316597938537598,-0.4356399178504944
1782891276465226000,6.09422607421875,0.012633925303816795,-1.0927393436431885,-0.40772297978401184
1782891276475247900,6.104247802734375,0.19431105256080627,-1.4306830167770386,-0.36999744176864624
1782891276485269800,6.114269775390625,0.3935926556587219,-1.820297360420227,-0.3509584367275238
1782891276495292000,6.1242919921875,0.597490131855011,-2.125920295715332,-0.35257282853126526
1782891276505313800,6.134313720703125,0.815092921257019,-2.163001775741577,-0.41827133297920227
1782891276515335700,6.144335693359375,0.9307423233985901,-1.9492871761322021,-0.5577338933944702
1782891276525358000,6.154358154296875,0.7581726908683777,-1.6848326921463013,-0.7636844515800476
1782891276535380000,6.1643798828125,0.48585063219070435,-1.1665613651275635,-0.8009867668151855
1782891276545401900,6.17440185546875,0.25027358531951904,-0.5643336772918701,-0.7552923560142517
1782891276555424000,6.184424072265625,0.01649971678853035,-0.022578831762075424,-0.5984329581260681
1782891276565446000,6.19444580078125,-0.17210786044597626,0.40835538506507874,-0.3431544601917267
1782891276575467800,6.2044677734375,-0.35376954078674316,0.6840383410453796,0.021873310208320618
1782891276585490000,6.214489990234375,-0.4360288381576538,0.814824640750885,0.39901429414749146
1782891276595511800,6.22451171875,-0.41815102100372314,0.7753856182098389,0.7513595819473267
1782891276605534000,6.234533935546875,-0.34533461928367615,0.653657853603363,1.0339736938476562
1782891276615556000,6.24455615234375,-0.2749664783477783,0.5209118723869324,1.224299669265747
1782891276625578000,6.254577880859375,-0.24273964762687683,0.4525694251060486,1.3014940023422241
1782891276635600000,6.264599853515625,-0.252367228269577,0.4154723882675171,1.2432019710540771
1782891276645621800,6.274621826171875,-0.2848016321659088,0.44246551394462585,1.0860897302627563
1782891276655644000,6.284643798828125,-0.3148708641529083,0.535504937171936,0.8813960552215576
1782891276665665800,6.294665771484375,-0.33653488755226135,0.6926507353782654,0.6550936102867126
1782891276675687700,6.304687744140625,-0.3362579047679901,0.8541325926780701,0.4352755546569824
1782891276685710000,6.3147099609375,-0.33374473452568054,1.0004099607467651,0.27226561307907104
1782891276695732000,6.32473193359375,-0.32300156354904175,1.0757784843444824,0.18716482818126678
1782891276705753900,6.33475390625,-0.32340189814567566,1.0729414224624634,0.16042275726795197
1782891276715776000,6.34477587890625,-0.31035372614860535,0.9802168607711792,0.19240227341651917
1782891276725798000,6.3547978515625,-0.264201819896698,0.840762734413147,0.27782678604125977
1782891276735819800,6.36481982421875,-0.22433137893676758,0.6958169937133789,0.42226946353912354
1782891276745842000,6.374842041015625,-0.21219852566719055,0.5257351398468018,0.6040075421333313
1782891276755863800,6.38486376953125,-0.22755084931850433,0.34201011061668396,0.8154146075248718
1782891276765886000,6.394885986328125,-0.25805774331092834,0.1617184281349182,1.0130486488342285
1782891276775908000,6.404908203125,-0.2757565677165985,0.0440186932682991,1.16982901096344
1782891276785930000,6.414929931640625,-0.2986282408237457,-0.012020047754049301,1.2734564542770386
1782891276795951900,6.424951904296875,-0.33130016922950745,-0.05949622020125389,1.3113713264465332
1782891276805974000,6.43497412109375,-0.35351499915122986,-0.10896608233451843,1.227874994277954
1782891276815996000,6.444995849609375,-0.36881670355796814,-0.182855486869812,1.0903419256210327
1782891276826017800,6.455017822265625,-0.37306416034698486,-0.2651044726371765,0.9037274122238159
1782891276836039700,6.465039794921875,-0.3600759208202362,-0.3388410210609436,0.6958029866218567
1782891276846061800,6.475061767578125,-0.3272746503353119,-0.43308696150779724,0.49037620425224304
1782891276856084000,6.485083984375,-0.28307950496673584,-0.5228751301765442,0.3085843026638031
1782891276866105900,6.49510595703125,-0.251103937625885,-0.572166383266449,0.16255375742912292
1782891276876128000,6.5051279296875,-0.23732580244541168,-0.5976597666740417,0.03804273530840874
1782891276886150000,6.51514990234375,-0.2560258209705353,-0.6264404058456421,-0.03935712203383446
1782891276896171800,6.525171875,-0.29335615038871765,-0.6276018023490906,-0.08234107494354248
1782891276906194000,6.53519384765625,-0.35723745822906494,-0.6078716516494751,-0.0920775756239891
1782891276916215800,6.5452158203125,-0.45531901717185974,-0.6319900155067444,-0.07883340865373611
1782891276926237700,6.55523779296875,-0.5500288009643555,-0.7088541388511658,-0.06660784780979156
1782891276936260000,6.565260009765625,-0.5480831265449524,-0.7904379367828369,-0.10112747550010681
1782891276946282000,6.575281982421875,-0.446271151304245,-0.875659704208374,-0.26656419038772583
1782891276956304000,6.585303955078125,-0.2960030734539032,-0.98796147108078,-0.575127899646759
1782891276966326000,6.595325927734375,-0.10589312016963959,-0.9958231449127197,-1.013803482055664
1782891276976348000,6.605347900390625,0.08949927240610123,-0.8724104166030884,-1.5381362438201904
1782891276986369800,6.615369873046875,0.3130945563316345,-0.6551654934883118,-2.0968637466430664
1782891276996392000,6.625391845703125,0.5036677122116089,-0.3771328032016754,-2.6217315196990967
1782891277006413800,6.635413818359375,0.5556051135063171,-0.026421193033456802,-2.9834866523742676
1782891277016436000,6.64543603515625,0.5226311683654785,0.3762871325016022,-3.104853391647339
1782891277026457900,6.655457763671875,0.4718087613582611,0.80105060338974,-3.0207009315490723
1782891277036480000,6.66547998046875,0.3811318576335907,1.2558127641677856,-2.7418806552886963
1782891277046502000,6.675501953125,0.26082584261894226,1.596118688583374,-2.3010048866271973
1782891277056523800,6.685523681640625,0.16961471736431122,1.7202147245407104,-1.7422609329223633
1782891277066546000,6.6955458984375,0.15219897031784058,1.6240495443344116,-1.1126816272735596
1782891277076567800,6.70556787109375,0.18918335437774658,1.3559694290161133,-0.5200324654579163
1782891277086589700,6.715589599609375,0.2511174976825714,0.9853909015655518,0.019840965047478676
1782891277096612000,6.725612060546875,0.2971228063106537,0.6364192962646484,0.48749417066574097
1782891277106634000,6.735634033203125,0.3242037892341614,0.3550320863723755,0.8277619481086731
1782891277116655900,6.74565576171875,0.3494388461112976,0.1617153286933899,1.0343070030212402
1782891277126678000,6.755677978515625,0.3697751462459564,0.0717817097902298,1.136540174484253
1782891277136700000,6.765699951171875,0.3695831298828125,0.06581996381282806,1.1249436140060425
1782891277146721800,6.7757216796875,0.3628288507461548,0.11797963827848434,1.0173753499984741
1782891277156744000,6.785743896484375,0.35856539011001587,0.25426584482192993,0.8596445322036743
1782891277166765800,6.795765869140625,0.33026427030563354,0.4603748619556427,0.7147963047027588
1782891277176788000,6.8057880859375,0.2508282959461212,0.6386181116104126,0.6211257576942444
1782891277186809900,6.815809814453125,0.11247147619724274,0.758014976978302,0.617651104927063
1782891277196832000,6.82583203125,-0.05794660001993179,0.7940480709075928,0.6909239888191223
1782891277206854000,6.83585400390625,-0.2393808364868164,0.7452685236930847,0.8272685408592224
1782891277216875800,6.845875732421875,-0.4196145236492157,0.6848586797714233,0.9807784557342529
1782891277226898000,6.85589794921875,-0.6091104745864868,0.6476525664329529,1.1442792415618896
1782891277236919800,6.865919921875,-0.8177856802940369,0.6442553997039795,1.262163758277893
1782891277246941700,6.875941650390625,-1.0189651250839233,0.6693118810653687,1.3281269073486328
1782891277256964000,6.885964111328125,-1.1857178211212158,0.7540688514709473,1.347758412361145
1782891277266986000,6.895986083984375,-1.3281837701797485,0.8761202692985535,1.3541545867919922
1782891277277008000,6.9060078125,-1.4552639722824097,1.028673529624939,1.3658013343811035
1782891277287030000,6.916030029296875,-1.5742863416671753,1.1822960376739502,1.373380422592163
1782891277297052000,6.926052001953125,-1.6655595302581787,1.324644684791565,1.358673095703125
1782891277307073800,6.93607373046875,-1.7602823972702026,1.5085020065307617,1.3419526815414429
1782891277317096000,6.946095947265625,-1.8503690958023071,1.7269504070281982,1.3446097373962402
1782891277327118000,6.9561181640625,-1.9241381883621216,1.9664326906204224,1.3753336668014526
1782891277337140000,6.966139892578125,-1.9705957174301147,2.23555326461792,1.4235669374465942
1782891277347162000,6.976162109375,-1.9848989248275757,2.492365598678589,1.4414526224136353
1782891277357184300,6.986184326171875,-1.9710092544555664,2.7024660110473633,1.4357824325561523
1782891277367206100,6.9962060546875,-1.9496982097625732,2.909864902496338,1.4326550960540771
1782891277377228000,7.00622802734375,-1.9135780334472656,3.1434977054595947,1.3996350765228271
1782891277387250000,7.01625,-1.8641362190246582,3.3383705615997314,1.2615772485733032
1782891277397272000,7.02627197265625,-1.8132797479629517,3.465864419937134,1.0497182607650757
1782891277407294000,7.0362939453125,-1.8168706893920898,3.546891927719116,0.8194267749786377
1782891277417315800,7.04631591796875,-1.8576050996780396,3.6503546237945557,0.637166440486908
1782891277427338200,7.056338134765625,-1.8319495916366577,3.744056224822998,0.5734235048294067
1782891277437360000,7.066360107421875,-1.6977757215499878,3.8095815181732178,0.6419365406036377
1782891277447382000,7.076382080078125,-1.4925425052642822,3.8628976345062256,0.7926730513572693
1782891277457404200,7.086404052734375,-1.3200496435165405,3.7521440982818604,0.9217860698699951
1782891277467426000,7.096426025390625,-1.27854323387146,3.3737425804138184,1.035934567451477
1782891277477448000,7.106447998046875,-1.3213846683502197,2.877873659133911,1.111688494682312
1782891277487470000,7.116469970703125,-1.3196790218353271,2.4465527534484863,1.1612821817398071
1782891277497492000,7.126491943359375,-1.2267866134643555,2.2013754844665527,1.160781741142273
1782891277507514000,7.13651416015625,-1.1172828674316406,2.133161783218384,1.1500974893569946
1782891277517536300,7.146536376953125,-1.0421963930130005,2.198399543762207,1.1473193168640137
1782891277527558100,7.15655810546875,-0.957816481590271,2.365511655807495,1.1714062690734863
1782891277537580000,7.166580078125,-0.8397290110588074,2.5419375896453857,1.2032662630081177
1782891277547602200,7.176602294921875,-0.7033822536468506,2.6216940879821777,1.2612831592559814
1782891277557624000,7.1866240234375,-0.5572239756584167,2.489943742752075,1.3628766536712646
1782891277567646000,7.19664599609375,-0.4402664303779602,2.2021515369415283,1.4838862419128418
1782891277577667800,7.206667724609375,-0.3377973139286041,1.813692569732666,1.5710443258285522
1782891277587690200,7.216690185546875,-0.24894915521144867,1.3811395168304443,1.5671019554138184
1782891277597712100,7.226712158203125,-0.17949603497982025,0.9956510066986084,1.452939510345459
1782891277607734000,7.236734130859375,-0.12456925213336945,0.7189735770225525,1.233859658241272
1782891277617756200,7.246756103515625,-0.09497673064470291,0.5532682538032532,0.9497472643852234
1782891277627778000,7.256778076171875,-0.10250263661146164,0.4880094528198242,0.6796112060546875
1782891277637800000,7.266800048828125,-0.12292322516441345,0.5160639882087708,0.4774341285228729
1782891277647822000,7.276822021484375,-0.13232500851154327,0.5729386210441589,0.34008562564849854
1782891277657844000,7.286843994140625,-0.10189732164144516,0.6577839851379395,0.2533336877822876
1782891277667866000,7.2968662109375,-0.027969978749752045,0.7489601373672485,0.21799258887767792
1782891277677888300,7.30688818359375,0.08313950151205063,0.7690552473068237,0.24888525903224945
1782891277687910100,7.31691015625,0.20139151811599731,0.7062044143676758,0.3441002368927002
1782891277697932000,7.32693212890625,0.2859892249107361,0.5189203023910522,0.48113080859184265
1782891277707954200,7.3369541015625,0.3281726539134979,0.33161866664886475,0.6876381039619446
1782891277717976000,7.34697607421875,0.3292698562145233,0.2201957255601883,0.9143999218940735
1782891277727998000,7.356998046875,0.31147322058677673,0.18890558183193207,1.091312289237976
1782891277738019800,7.367019775390625,0.3152543902397156,0.22970254719257355,1.204447627067566
1782891277748042000,7.3770419921875,0.3362853527069092,0.30143141746520996,1.2498986721038818
1782891277758064000,7.387064208984375,0.3575360178947449,0.3820250630378723,1.2863069772720337
1782891277768086000,7.3970859375,0.34586769342422485,0.4530498683452606,1.361589789390564
1782891277778108200,7.407108154296875,0.3069421350955963,0.4850064516067505,1.5123279094696045
1782891277788130000,7.417130126953125,0.2754237651824951,0.4734451472759247,1.6921582221984863
1782891277798152000,7.42715185546875,0.27428871393203735,0.4350578188896179,1.812911033630371
1782891277808174000,7.437174072265625,0.27797916531562805,0.38278353214263916,1.8289142847061157
1782891277818196000,7.447196044921875,0.25991547107696533,0.3078174293041229,1.7325776815414429
1782891277828217900,7.4572177734375,0.19904260337352753,0.18632371723651886,1.5735746622085571
1782891277838240300,7.467240234375,0.11006826907396317,0.06754033267498016,1.392706274986267
1782891277848262100,7.47726220703125,-0.028216302394866943,0.014719225466251373,1.2589420080184937
1782891277858284000,7.487283935546875,-0.18194247782230377,0.012856876477599144,1.183680534362793
1782891277868306200,7.49730615234375,-0.3264409005641937,0.019042406231164932,1.1410893201828003
1782891277878328000,7.507328125,-0.4010022282600403,0.04062572866678238,1.0689176321029663
1782891277888350000,7.517349853515625,-0.35013166069984436,-0.002343186177313328,0.904013454914093
1782891277898372000,7.5273720703125,-0.2654961347579956,-0.04849470406770706,0.6286268830299377
1782891277908394000,7.53739404296875,-0.2115708291530609,-0.12419435381889343,0.2823900878429413
1782891277918416100,7.547416015625,-0.20636673271656036,-0.2901447117328644,-0.10262498259544373
1782891277928438000,7.55743798828125,-0.27113863825798035,-0.5593004822731018,-0.518385648727417
1782891277938460200,7.567460205078125,-0.31577640771865845,-0.8438605666160583,-0.902069628238678
1782891277948482000,7.57748193359375,-0.35756444931030273,-1.0353564023971558,-1.1832388639450073
1782891277958504000,7.58750390625,-0.38020822405815125,-0.9483669400215149,-1.2261557579040527
1782891277968526000,7.597526123046875,-0.3522031605243683,-0.5801988244056702,-1.0041786432266235
1782891277978548000,7.6075478515625,-0.3212612271308899,-0.048102688044309616,-0.6683561205863953
1782891277988569900,7.61756982421875,-0.26234108209609985,0.47573283314704895,-0.33938127756118774
1782891277998592300,7.62759228515625,-0.20337097346782684,0.7563495635986328,-0.14917699992656708
1782891278008614100,7.6376142578125,-0.15016447007656097,0.7820850610733032,-0.0851316973567009
1782891278018636000,7.647635986328125,-0.10654482990503311,0.6556503772735596,-0.1345336139202118
1782891278028658200,7.657658203125,-0.06768973916769028,0.41782712936401367,-0.24345725774765015
1782891278038680000,7.66768017578125,-0.04918583109974861,0.15506501495838165,-0.3597052991390228
1782891278048702000,7.677701904296875,-0.04487859085202217,-0.06740203499794006,-0.4827381670475006
1782891278058724000,7.68772412109375,-0.0642421692609787,-0.19588197767734528,-0.6137768626213074
1782891278068746000,7.69774609375,-0.08813072741031647,-0.2179555892944336,-0.717444121837616
1782891278078768000,7.70776806640625,-0.10518454015254974,-0.1696663647890091,-0.7783306241035461
1782891278088790300,7.717790283203125,-0.12059327214956284,-0.05956999212503433,-0.7888438105583191
1782891278098812200,7.727812255859375,-0.14814579486846924,0.024647152051329613,-0.7505819201469421
1782891278108834000,7.737833984375,-0.12229671329259872,0.07140787690877914,-0.6518563032150269
1782891278118856000,7.74785595703125,-0.10934922099113464,0.02831234037876129,-0.5319181680679321
1782891278128878000,7.757878173828125,-0.0872587040066719,-0.03079136461019516,-0.40009474754333496
1782891278138900000,7.76789990234375,-0.045136820524930954,-0.0697089359164238,-0.2503436207771301
1782891278148921900,7.777921875,-0.03600427135825157,-0.08119595050811768,-0.1194985881447792
1782891278158944300,7.7879443359375,-0.029953833669424057,-0.04486536979675293,0.01586589589715004
1782891278168966100,7.797966064453125,-0.0341741219162941,0.025312164798378944,0.14318683743476868
1782891278178988000,7.807988037109375,-0.05470922589302063,0.14356344938278198,0.2764247953891754
1782891278189010200,7.81801025390625,-0.08209836483001709,0.26352837681770325,0.4155801236629486
1782891278199032000,7.828031982421875,-0.1151559129357338,0.32558828592300415,0.5326718688011169
1782891278209054000,7.838053955078125,-0.13828767836093903,0.34432724118232727,0.6317929625511169
1782891278219076000,7.848076171875,-0.13501304388046265,0.3775264620780945,0.7119146585464478
1782891278229098000,7.858097900390625,-0.07348357141017914,0.37855055928230286,0.7167934775352478
1782891278239120100,7.8681201171875,0.01524390373378992,0.3336115777492523,0.7076783180236816
1782891278249142300,7.878142333984375,0.07744642347097397,0.2995251715183258,0.7435767650604248
1782891278259164200,7.8881640625,0.17929476499557495,0.29399725794792175,0.8098559379577637
1782891278269186000,7.89818603515625,0.3112117350101471,0.23602496087551117,0.8528684377670288
1782891278279208000,7.9082080078125,0.38935473561286926,0.22677446901798248,0.892449676990509
1782891278289230000,7.91822998046875,0.44283056259155273,0.28221192955970764,0.9095728993415833
1782891278299252000,7.928251953125,0.4714116156101227,0.2887137830257416,0.8948823809623718
1782891278309273900,7.93827392578125,0.4676930904388428,0.2395332008600235,0.8796066641807556
1782891278319296000,7.9482958984375,0.4445616900920868,0.14594599604606628,0.8595581650733948
1782891278329318100,7.958318115234375,0.4182758033275604,0.01836572214961052,0.7457579970359802
1782891278339340300,7.96834033203125,0.3932705819606781,-0.07174339890480042,0.5220471620559692
1782891278349362200,7.978362060546875,0.33910083770751953,-0.08099298924207687,0.2259710431098938
1782891278359384000,7.988384033203125,0.29531019926071167,0.02144123800098896,-0.10708094388246536
1782891278369406200,7.99840625,0.32270142436027527,0.20898398756980896,-0.39665746688842773
1782891278379428000,8.008427978515625,0.4255034625530243,0.3090594708919525,-0.5729081630706787
1782891278389450000,8.018449951171876,0.533817708492279,0.1748887002468109,-0.5903902053833008
1782891278399472000,8.02847216796875,0.56475430727005,-0.37985625863075256,-0.5408996343612671
1782891278409494300,8.038494384765626,0.44302770495414734,-1.2080907821655273,-0.5908433198928833
1782891278419516200,8.04851611328125,0.21324190497398376,-1.8097374439239502,-0.7697321176528931
1782891278429538300,8.058538330078125,-0.010238694958388805,-1.9556196928024292,-1.0010828971862793
1782891278439560200,8.068560302734374,-0.1348237693309784,-1.7615141868591309,-1.2187830209732056
1782891278449582000,8.07858203125,-0.1601852923631668,-1.2382583618164062,-1.318034052848816
1782891278459604000,8.08860400390625,-0.13329748809337616,-0.5073775053024292,-1.2492581605911255
1782891278469626000,8.098626220703125,-0.06528186798095703,0.14762425422668457,-1.045528769493103
1782891278479648000,8.10864794921875,0.002807703334838152,0.46221017837524414,-0.7697967886924744
1782891278489670100,8.118670166015624,0.021651556715369225,0.4210423231124878,-0.5126370787620544
1782891278499692300,8.1286923828125,-0.011623043566942215,0.16002270579338074,-0.3522692024707794
1782891278509714200,8.138714111328126,-0.039521750062704086,-0.20591598749160767,-0.3694831132888794
1782891278519736000,8.148736083984375,-0.07029031217098236,-0.5980539321899414,-0.5059147477149963
1782891278529758200,8.15875830078125,-0.13141179084777832,-0.8977163434028625,-0.7123453617095947
1782891278539780000,8.168780029296874,-0.17771883308887482,-1.102952003479004,-0.9942992329597473
1782891278549802000,8.178802001953125,-0.21451576054096222,-1.220048189163208,-1.314943790435791
1782891278559824100,8.18882421875,-0.27402862906455994,-1.1123875379562378,-1.5726685523986816
1782891278569846300,8.19884619140625,-0.350033700466156,-0.82193922996521,-1.7552428245544434
1782891278579868200,8.2088681640625,-0.40664955973625183,-0.37154966592788696,-1.802115559577942
1782891278589890300,8.218890380859374,-0.4591355621814728,0.07797496765851974,-1.702787160873413
1782891278599912200,8.228912109375,-0.47273579239845276,0.35231730341911316,-1.4746943712234497
1782891278609934000,8.23893408203125,-0.43838566541671753,0.4566613733768463,-1.1561942100524902
1782891278619956200,8.248956298828125,-0.38138869404792786,0.4195217192173004,-0.8039371967315674
1782891278629978000,8.25897802734375,-0.30189067125320435,0.25763827562332153,-0.46843695640563965
1782891278640000000,8.269,-0.21212297677993774,0.07936441153287888,-0.19570954144001007
1782891278650022100,8.279022216796875,-0.14246925711631775,-0.06570601463317871,-0.004789229482412338
1782891278660044300,8.289044189453126,-0.09345776587724686,-0.1432759016752243,0.13859456777572632
1782891278670066200,8.299066162109375,-0.05824356898665428,-0.11941524595022202,0.2608453631401062
1782891278680088000,8.309088134765625,-0.00819904264062643,-0.0483597032725811,0.35322561860084534
1782891278690110200,8.319110107421874,0.04858700558543205,0.03990357741713524,0.4110199511051178
1782891278700132000,8.329132080078125,0.08411680907011032,0.11978763341903687,0.431405633687973
1782891278710154000,8.339154052734376,0.11468350887298584,0.170357346534729,0.4618500769138336
1782891278720176000,8.349176025390625,0.13352015614509583,0.17518939077854156,0.5177965760231018
1782891278730198300,8.3591982421875,0.1408773958683014,0.13651390373706818,0.5769358277320862
1782891278740220200,8.36922021484375,0.14328692853450775,0.0787201002240181,0.6265040636062622
1782891278750242300,8.3792421875,0.14545686542987823,0.01518826000392437,0.6734007000923157
1782891278760264200,8.38926416015625,0.1528485268354416,-0.04006056860089302,0.7259045243263245
1782891278770286000,8.3992861328125,0.16054347157478333,-0.08223385363817215,0.7889463305473328
1782891278780308200,8.40930810546875,0.15761825442314148,-0.1309923380613327,0.8553637266159058
1782891278790330000,8.419330078125,0.1203470528125763,-0.19173051416873932,0.8944892883300781
1782891278800352000,8.42935205078125,0.04631658270955086,-0.2669054865837097,0.9065999388694763
1782891278810374100,8.4393740234375,-0.03610532358288765,-0.3582282066345215,0.887494683265686
1782891278820396300,8.449396240234375,-0.09409447759389877,-0.4208276569843292,0.8344475626945496
1782891278830418200,8.459418212890625,-0.12030557543039322,-0.3832480311393738,0.7731783390045166
1782891278840440000,8.469440185546874,-0.14208123087882996,-0.28245916962623596,0.6325017809867859
1782891278850462200,8.479462158203125,-0.15620583295822144,-0.19453252851963043,0.38788509368896484
1782891278860484000,8.489484130859376,-0.15878067910671234,-0.1756322681903839,0.04680057615041733
1782891278870506000,8.499506103515625,-0.16064703464508057,-0.27545100450515747,-0.39211395382881165
1782891278880528100,8.509528076171875,-0.15645746886730194,-0.39745157957077026,-0.8762205839157104
1782891278890550000,8.519550048828124,-0.11990637332201004,-0.4569801390171051,-1.265750765800476
1782891278900572200,8.529572265625,-0.05822916701436043,-0.39235401153564453,-1.380743384361267
1782891278910594300,8.53959423828125,0.016032280400395393,-0.1199675127863884,-1.1115148067474365
1782891278920616200,8.5496162109375,0.11391021311283112,0.2945684492588043,-0.5558810234069824
1782891278930638000,8.55963818359375,0.24571432173252106,0.6135536432266235,0.020149001851677895
1782891278940660200,8.56966015625,0.38814738392829895,0.6833861470222473,0.38559219241142273
1782891278950682000,8.57968212890625,0.5035600066184998,0.5865631699562073,0.5634346008300781
1782891278960704000,8.5897041015625,0.5560134649276733,0.39836469292640686,0.6233976483345032
1782891278970726100,8.59972607421875,0.5481659173965454,0.1367405503988266,0.632075846195221
1782891278980748300,8.609748291015626,0.46714136004447937,-0.10720152407884598,0.6459219455718994
1782891278990770200,8.619770263671874,0.30186957120895386,-0.21129995584487915,0.6306884288787842
1782891279000792000,8.6297919921875,0.07447932660579681,-0.17097802460193634,0.5333109498023987
1782891279010814200,8.639814208984374,-0.16600945591926575,-0.045551400631666183,0.348395437002182
1782891279020836000,8.649836181640625,-0.4159531891345978,0.18516415357589722,0.12347172945737839
1782891279030858000,8.65985791015625,-0.6577383875846863,0.5343125462532043,-0.1074214056134224
1782891279040880000,8.669880126953124,-0.8416492938995361,0.8228411078453064,-0.3194969594478607
1782891279050902000,8.679902099609375,-0.9572240710258484,0.9857767224311829,-0.4457547664642334
1782891279060924200,8.689924072265624,-1.0034857988357544,0.9897896647453308,-0.4720083177089691
1782891279070946300,8.6999462890625,-0.966314435005188,0.8367580771446228,-0.41673731803894043
1782891279080968200,8.70996826171875,-0.8655918836593628,0.5854091644287109,-0.2925295829772949
1782891279090990000,8.719989990234374,-0.7390109896659851,0.2987552583217621,-0.13834324479103088
1782891279101012200,8.73001220703125,-0.5976451635360718,0.04934307932853699,0.0484352707862854
1782891279111034000,8.7400341796875,-0.4458865225315094,-0.09035356342792511,0.22431309521198273
1782891279121056000,8.750055908203125,-0.29012027382850647,-0.13794609904289246,0.33584535121917725
1782891279131078100,8.760078125,-0.1616094410419464,-0.08823978900909424,0.3961648941040039
1782891279141100300,8.770100341796875,-0.08038350939750671,0.05649978667497635,0.440102756023407
1782891279151122200,8.7801220703125,-0.036406464874744415,0.24841198325157166,0.446371853351593
1782891279161144300,8.790144287109374,0.0004697762196883559,0.4248463213443756,0.41359978914260864
1782891279171166200,8.800166259765625,0.010447042062878609,0.5759937763214111,0.353204607963562
1782891279181188000,8.81018798828125,0.03016926907002926,0.680191159248352,0.31687599420547485
1782891279191210000,8.8202099609375,0.06799334287643433,0.7296226024627686,0.3006530702114105
1782891279201232100,8.830232177734375,0.12470769137144089,0.7532548308372498,0.28905001282691956
1782891279211254000,8.84025390625,0.2207079827785492,0.7392910718917847,0.26229989528656006
1782891279221276200,8.850276123046875,0.3427172601222992,0.6491460204124451,0.23725341260433197
1782891279231298300,8.86029833984375,0.46472519636154175,0.5687395930290222,0.2435176968574524
1782891279241320200,8.8703203125,0.5895671844482422,0.5387839078903198,0.3587798476219177
1782891279251342000,8.880342041015625,0.7145136594772339,0.48658517003059387,0.5713571310043335
1782891279261364200,8.8903642578125,0.8146184682846069,0.3531941771507263,0.7992280721664429
1782891279271386000,8.90038623046875,0.8317700028419495,0.21076804399490356,0.94148188829422
1782891279281408000,8.910407958984376,0.780478298664093,0.04227570444345474,0.9553106427192688
1782891279291430100,8.92043017578125,0.6481743454933167,-0.11049040406942368,0.9094712138175964
1782891279301452000,8.9304521484375,0.474802166223526,-0.19021756947040558,0.8457517623901367
1782891279311474200,8.94047412109375,0.3403783142566681,-0.15604308247566223,0.7448981404304504
1782891279321496300,8.950496337890625,0.2920360267162323,0.013075328432023525,0.5985497236251831
1782891279331517400,8.960517333984376,0.3006630837917328,0.15673662722110748,0.3753286600112915
1782891279341539300,8.970539306640624,0.32886797189712524,0.09563976526260376,0.053875893354415894
1782891279351561500,8.9805615234375,0.3324102461338043,-0.3264622092247009,-0.33579277992248535
1782891279361583400,8.990583251953124,0.267245888710022,-1.0103647708892822,-0.729641854763031
1782891279371605500,9.00060546875,0.17159710824489594,-1.585792899131775,-1.0049700736999512
1782891279381627400,9.01062744140625,0.06972705572843552,-1.7811894416809082,-1.081117033958435
1782891279391649500,9.0206494140625,-0.013238932006061077,-1.5379656553268433,-1.0102863311767578
1782891279401671400,9.03067138671875,-0.01635736972093582,-0.9965052604675293,-0.8787199258804321
1782891279411693300,9.040693359375,0.08460067212581635,-0.3205440938472748,-0.7364927530288696
1782891279421715500,9.050715576171875,0.24925623834133148,0.25553426146507263,-0.6012662053108215
1782891279431737300,9.0607373046875,0.3584493100643158,0.5450094938278198,-0.4764566719532013
1782891279441759200,9.07075927734375,0.39178380370140076,0.5702517032623291,-0.3918248414993286
1782891279451781600,9.08078173828125,0.3841085731983185,0.43146663904190063,-0.33587369322776794
1782891279461803500,9.090803466796874,0.3299509584903717,0.22596396505832672,-0.3181888461112976
1782891279471825400,9.100825439453125,0.23145073652267456,0.0393269807100296,-0.35184136033058167
1782891279481847600,9.11084765625,0.11719454824924469,-0.08016298711299896,-0.4547065794467926
1782891279491869400,9.120869384765625,-0.015563500113785267,-0.09323804080486298,-0.6478257179260254
1782891279501891300,9.130891357421875,-0.15409433841705322,-0.006436660885810852,-0.9457004070281982
1782891279511913500,9.14091357421875,-0.2852441072463989,0.10745634883642197,-1.2723995447158813
1782891279521935400,9.150935302734375,-0.3944074213504791,0.23557938635349274,-1.5080902576446533
1782891279531957500,9.16095751953125,-0.4396401345729828,0.35942062735557556,-1.580460786819458
1782891279541979600,9.170979736328125,-0.37501975893974304,0.414874404668808,-1.4726982116699219
1782891279552001500,9.18100146484375,-0.2354104369878769,0.3970282971858978,-1.1853610277175903
1782891279562023400,9.1910234375,-0.08204622566699982,0.3023148477077484,-0.7865486145019531
1782891279572045300,9.20104541015625,0.05193447694182396,0.16889581084251404,-0.34200602769851685
1782891279582067500,9.2110673828125,0.1617295742034912,0.054137807339429855,0.06227896735072136
1782891279592089300,9.22108935546875,0.23584134876728058,-0.01425163447856903,0.34903883934020996
1782891279602111200,9.231111328125,0.27550947666168213,-0.02019428461790085,0.4914100170135498
1782891279612133400,9.24113330078125,0.28287577629089355,0.006966496352106333,0.4956628084182739
1782891279622155500,9.251155517578125,0.2646743655204773,0.0374966636300087,0.3983041048049927
1782891279632177400,9.261177490234376,0.23160108923912048,0.06113727390766144,0.2632749080657959
1782891279642199600,9.271199462890625,0.19813194870948792,0.09528655558824539,0.13559962809085846
1782891279652221400,9.281221435546875,0.1889573633670807,0.13675490021705627,0.013124054297804832
1782891279662243300,9.291243408203124,0.21057793498039246,0.16250918805599213,-0.10521775484085083
1782891279672265500,9.301265380859375,0.2290821075439453,0.18504512310028076,-0.14125113189220428
1782891279682287400,9.311287353515626,0.2661753296852112,0.20073647797107697,-0.06092236936092377
1782891279692309500,9.3213095703125,0.2870262861251831,0.16372758150100708,0.09920897334814072
1782891279702331600,9.33133154296875,0.26119306683540344,0.10285720229148865,0.2696888744831085
1782891279712353500,9.341353515625,0.23112119734287262,0.04510495439171791,0.42102646827697754
1782891279722375400,9.35137548828125,0.21044033765792847,0.0038834516890347004,0.5584408640861511
1782891279732397300,9.361397216796876,0.17199654877185822,-0.043147973716259,0.6728819608688354
1782891279742419500,9.37141943359375,0.12241213023662567,-0.09792771935462952,0.760981023311615
1782891279752441300,9.38144140625,0.057507965713739395,-0.14579537510871887,0.772493302822113
1782891279762463200,9.391463134765624,-0.02447868138551712,-0.19726112484931946,0.6713120341300964
1782891279772485400,9.4014853515625,-0.0922263041138649,-0.2513400912284851,0.4958302080631256
1782891279782507500,9.411507568359376,-0.12388787418603897,-0.2925412058830261,0.32408350706100464
1782891279792529400,9.421529296875,-0.10438607633113861,-0.3297945559024811,0.210338294506073
1782891279802551600,9.431551513671875,-0.04572177305817604,-0.35054123401641846,0.19466327130794525
1782891279812573400,9.441573486328124,-0.01220748946070671,-0.12730734050273895,0.2117658257484436
1782891279822595300,9.45159521484375,0.0076616606675088406,-0.21334925293922424,0.02949683740735054
1782891279832617500,9.461617431640626,-0.014368806965649128,-0.5070725083351135,-0.20215342938899994
1782891279842639400,9.471639404296875,-0.10228303074836731,-0.7528733015060425,-0.5012654662132263
1782891279852661200,9.4816611328125,-0.20011664927005768,-0.8571243286132812,-0.8496362566947937
1782891279862683600,9.49168359375,-0.2536123991012573,-0.7744336724281311,-1.1058515310287476
1782891279872705500,9.50170556640625,-0.2310122847557068,-0.42246687412261963,-1.1538883447647095
1782891279882727400,9.5117275390625,-0.15270254015922546,0.15114541351795197,-0.9827775359153748
1782891279892749600,9.52174951171875,-0.06874000281095505,0.7128295302391052,-0.6465880870819092
1782891279902771500,9.531771484375,0.0017715241992846131,0.999297559261322,-0.29216477274894714
1782891279912793300,9.54179345703125,0.0676509365439415,0.9690871238708496,-0.0332900770008564
1782891279922815200,9.551815185546875,0.11286545544862747,0.727090060710907,0.11066292226314545
1782891279932837400,9.56183740234375,0.2122780680656433,0.43688300251960754,0.19955232739448547
1782891279942859500,9.571859619140625,0.2717788815498352,0.08868954330682755,0.21297338604927063
1782891279952881400,9.58188134765625,0.2509170174598694,-0.12650799751281738,0.20427389442920685
1782891279962903600,9.591903564453125,0.17074380815029144,-0.1822957545518875,0.17881283164024353
1782891279972925400,9.601925537109375,0.03755885735154152,-0.14342612028121948,0.09524789452552795
1782891279982948600,9.611948486328124,-0.12010721862316132,0.023272329941391945,-0.05139188468456268
1782891279992969500,9.621969482421875,-0.25531405210494995,0.25494709610939026,-0.2379913330078125
1782891280002992400,9.631992431640626,-0.36374378204345703,0.45835262537002563,-0.4398808777332306
1782891280013013200,9.64201318359375,-0.42616745829582214,0.6212193369865417,-0.5923939943313599
1782891280023036400,9.652036376953125,-0.43071332573890686,0.7293826937675476,-0.6509996652603149
1782891280033058300,9.662058349609374,-0.3625749945640564,0.7777174711227417,-0.5799100399017334
1782891280043080400,9.67208056640625,-0.2644025683403015,0.7704364061355591,-0.36618420481681824
1782891280053102600,9.6821025390625,-0.14323167502880096,0.6740491986274719,-0.04271639510989189
1782891280063124500,9.69212451171875,-0.02558133192360401,0.5048762559890747,0.3457435965538025
1782891280073146400,9.702146484375,0.05501843988895416,0.3615231513977051,0.7261625528335571
1782891280083168500,9.71216845703125,0.07964815944433212,0.27232304215431213,1.0599647760391235
1782891280093190400,9.7221904296875,0.05304477736353874,0.2155926525592804,1.3324021100997925
1782891280103212300,9.73221240234375,-0.006317307241261005,0.10461177676916122,1.491234302520752
1782891280113234400,9.742234375,-0.09495742619037628,-0.011491123586893082,1.5147074460983276
1782891280123256300,9.75225634765625,-0.2009623646736145,-0.0688004344701767,1.4078667163848877
1782891280133278500,9.762278564453124,-0.2949985861778259,-0.04461733624339104,1.1852259635925293
1782891280143300600,9.772300537109375,-0.35940346121788025,0.061181746423244476,0.8906936049461365
1782891280153322500,9.782322509765624,-0.3934229612350464,0.2768069803714752,0.5915162563323975
1782891280163344400,9.792344482421875,-0.4008032977581024,0.5453527569770813,0.3376937806606293
1782891280173366500,9.802366455078126,-0.3948191702365875,0.791186511516571,0.20160703361034393
1782891280183388400,9.812388427734374,-0.3795713782310486,0.9235409498214722,0.19453302025794983
1782891280193410300,9.822410400390625,-0.38043931126594543,0.969660758972168,0.30297720432281494
1782891280203432400,9.832432373046874,-0.40495944023132324,0.9282775521278381,0.5189818739891052
1782891280213454600,9.84245458984375,-0.4661615490913391,0.7420773506164551,0.7852532267570496
1782891280223476500,9.8524765625,-0.5510646104812622,0.40450677275657654,1.0136327743530273
1782891280233498400,9.862498291015624,-0.6081491708755493,0.05091487616300583,1.1172996759414673
1782891280243520500,9.8725205078125,-0.613206684589386,-0.17070725560188293,1.0842536687850952
1782891280253542400,9.88254248046875,-0.6024054288864136,-0.24459399282932281,0.9604679346084595
1782891280263564300,9.892564208984375,-0.6203133463859558,-0.2668496370315552,0.7798802852630615
1782891280273586400,9.90258642578125,-0.6760077476501465,-0.266744464635849,0.578393280506134
1782891280283608300,9.9126083984375,-0.7142387628555298,-0.22446762025356293,0.38342827558517456
1782891280293630500,9.92263037109375,-0.6890327334403992,-0.15119260549545288,0.20359405875205994
1782891280303652600,9.932652587890624,-0.5992599129676819,-0.14700442552566528,-0.023564554750919342
1782891280313674500,9.942674560546875,-0.4442317485809326,-0.25843003392219543,-0.3219600319862366
1782891280323696400,9.9526962890625,-0.31846582889556885,-0.5174636840820312,-0.6936270594596863
1782891280333718500,9.962718505859375,-0.31066861748695374,-0.8754609823226929,-1.1918383836746216
1782891280343740400,9.972740478515625,-0.3694780766963959,-1.0266358852386475,-1.7103087902069092
1782891280353762600,9.982762451171874,-0.41425859928131104,-0.7998322248458862,-2.033755302429199
1782891280363784400,9.992784423828125,-0.3727929890155792,-0.2800624370574951,-1.9898852109909058
1782891280373806600,10.002806640625,-0.24144375324249268,0.30654245615005493,-1.581089973449707
1782891280383828500,10.012828369140625,-0.025607798248529434,0.7963575124740601,-0.9388208985328674
1782891280393850600,10.0228505859375,0.1510593742132187,0.9498090744018555,-0.3223014771938324
1782891280403872500,10.03287255859375,0.3488691747188568,0.806289792060852,0.18905387818813324
1782891280413894400,10.042894287109375,0.5089762806892395,0.32973337173461914,0.5249706506729126
1782891280423916500,10.05291650390625,0.5757562518119812,-0.28140315413475037,0.719012439250946
1782891280433938400,10.0629384765625,0.542365550994873,-0.8741823434829712,0.781177282333374
1782891280443960300,10.072960205078125,0.42931514978408813,-1.2492225170135498,0.7124373912811279
1782891280453982500,10.082982421875,0.3205370008945465,-1.2778129577636719,0.5103633403778076
1782891280464004600,10.093004638671875,0.24665877223014832,-1.0049465894699097,0.18795974552631378
1782891280474026500,10.103026611328126,0.1693408191204071,-0.5094838738441467,-0.18452540040016174
1782891280484048600,10.113048583984375,0.05089404806494713,0.1149086281657219,-0.5248433351516724
1782891280494070500,10.123070556640625,-0.10406916588544846,0.7390774488449097,-0.777048647403717
1782891280504092400,10.133092529296874,-0.21908332407474518,1.1890419721603394,-0.8637282252311707
1782891280514114600,10.143114501953125,-0.23785488307476044,1.3634837865829468,-0.7515531778335571
1782891280524136400,10.153136474609376,-0.18129733204841614,1.2851892709732056,-0.46661704778671265
1782891280534158600,10.16315869140625,-0.12132053822278976,0.9743236899375916,-0.04958094656467438
1782891280544180700,10.1731806640625,-0.16435283422470093,0.47168678045272827,0.38956886529922485
1782891280554202600,10.18320263671875,-0.14641563594341278,0.03510705381631851,0.8373661041259766
1782891280564224500,10.193224609375,-0.06244730204343796,-0.35745757818222046,1.1362247467041016
1782891280574246400,10.203246337890626,0.010260720737278461,-0.5947673320770264,1.271035075187683
1782891280584268500,10.2132685546875,0.054786089807748795,-0.5905407071113586,1.2411106824874878
1782891280594290400,10.22329052734375,0.05608278512954712,-0.38331857323646545,1.0823301076889038
1782891280604312300,10.233312255859374,0.016547949984669685,-0.07877147942781448,0.8615936636924744
1782891280614334500,10.24333447265625,-0.06497806310653687,0.21159909665584564,0.6407188177108765
1782891280624356600,10.253356689453126,-0.172753244638443,0.4194704592227936,0.4641943573951721
1782891280634378500,10.26337841796875,-0.2761896252632141,0.5226636528968811,0.34101542830467224
1782891280644400600,10.273400634765625,-0.35383108258247375,0.521068274974823,0.26740744709968567
1782891280654422500,10.283422607421874,-0.38030076026916504,0.44253167510032654,0.2402551919221878
1782891280664444400,10.2934443359375,-0.36454883217811584,0.3215796947479248,0.2778003215789795
1782891280674466600,10.303466552734376,-0.3281269073486328,0.1876503974199295,0.3769032061100006
1782891280684488400,10.313488525390625,-0.28991055488586426,0.038507066667079926,0.5055006146430969
1782891280694510300,10.32351025390625,-0.25358638167381287,-0.11533442884683609,0.6411239504814148
1782891280704532700,10.33353271484375,-0.20424573123455048,-0.2868904769420624,0.7414897084236145
1782891280714554600,10.3435546875,-0.14552702009677887,-0.46593746542930603,0.7554704546928406
1782891280724576500,10.353576416015626,-0.11081153899431229,-0.6690213084220886,0.656383752822876
1782891280734598700,10.3635986328125,-0.1482420116662979,-0.8436029553413391,0.46272557973861694
1782891280744620500,10.37362060546875,-0.2490120679140091,-0.911468505859375,0.1912192851305008
1782891280754642400,10.383642333984374,-0.34358465671539307,-0.9312736392021179,-0.17928554117679596
1782891280764664300,10.393664306640625,-0.403739869594574,-0.9512182474136353,-0.6616740226745605
1782891280774686500,10.4036865234375,-0.3852090537548065,-0.9682749509811401,-1.2187652587890625
1782891280784708600,10.41370849609375,-0.32125407457351685,-0.9083941578865051,-1.7349159717559814
1782891280794730500,10.42373046875,-0.29762357473373413,-0.6769678592681885,-2.0392086505889893
1782891280804752600,10.433752685546875,-0.30307668447494507,-0.17799139022827148,-2.010728120803833
1782891280814774500,10.4437744140625,-0.28204837441444397,0.3568888008594513,-1.684842824935913
1782891280824796400,10.45379638671875,-0.20003047585487366,0.7363444566726685,-1.162729024887085
1782891280834818600,10.463818603515625,-0.06223078817129135,0.8519490957260132,-0.6199281215667725
1782891280844840400,10.47384033203125,0.07383949309587479,0.6809888482093811,-0.22419628500938416
1782891280854862300,10.4838623046875,0.22902242839336395,0.3191627562046051,0.016494080424308777
1782891280864884700,10.493884765625,0.33792153000831604,-0.15964914858341217,0.09249665588140488
1782891280874906600,10.50390673828125,0.4241991639137268,-0.4766542613506317,0.050415247678756714
1782891280884928500,10.513928466796875,0.48960137367248535,-0.5780725479125977,-0.0689370185136795
1782891280894950700,10.52395068359375,0.5056213736534119,-0.49188917875289917,-0.2218349575996399
1782891280904972500,10.53397265625,0.4538230895996094,-0.29362210631370544,-0.37366893887519836
1782891280914994400,10.543994384765625,0.3388538956642151,-0.07882033288478851,-0.5397076606750488
1782891280925016300,10.554016357421874,0.16642709076404572,0.12421801686286926,-0.7275211215019226
1782891280935038500,10.56403857421875,-0.00850503146648407,0.31392374634742737,-0.896356999874115
1782891280945060600,10.574060546875,-0.16177596151828766,0.4330456554889679,-1.007650375366211
1782891280955082500,10.58408251953125,-0.2620493173599243,0.47635769844055176,-1.0285329818725586
1782891280965104600,10.594104736328125,-0.2954769730567932,0.48206767439842224,-0.9324871897697449
1782891280975126500,10.60412646484375,-0.26892420649528503,0.4590030908584595,-0.7269614934921265
1782891280985148400,10.6141484375,-0.22007529437541962,0.4082123339176178,-0.42848092317581177
1782891280995170600,10.624170654296876,-0.15947240591049194,0.3292410671710968,-0.07555826753377914
1782891281005192400,10.6341923828125,-0.10069793462753296,0.25149065256118774,0.28129854798316956
1782891281015214300,10.64421435546875,-0.04866589233279228,0.17262433469295502,0.5849511027336121
1782891281025236500,10.654236572265624,-0.0015843866858631372,0.09370607137680054,0.811202347278595
1782891281035258600,10.664258544921875,0.02978179231286049,0.030738551169633865,0.9537909030914307
1782891281045280500,10.674280517578126,0.04665808007121086,-0.03501540422439575,1.023568034172058
1782891281055302700,10.684302734375,0.05652669072151184,-0.08840273320674896,1.0368351936340332
1782891281065324500,10.694324462890625,0.07400017976760864,-0.10984088480472565,0.9952802062034607
1782891281075346400,10.704346435546874,0.07638397067785263,-0.07714419066905975,0.917473316192627
1782891281085368600,10.71436865234375,0.05758316442370415,0.0651567354798317,0.8077777028083801
1782891281095390500,10.724390380859376,0.024558639153838158,0.2858997583389282,0.7018209099769592
1782891281105412600,10.73441259765625,-0.012636912986636162,0.47830408811569214,0.6074416637420654
1782891281115434500,10.7444345703125,-0.05553910508751869,0.6018467545509338,0.5818827748298645
1782891281125456600,10.75445654296875,-0.08400211483240128,0.6417621374130249,0.6448184847831726
1782891281135478500,10.764478515625,-0.10862250626087189,0.587441086769104,0.7783376574516296
1782891281145500400,10.77450048828125,-0.129862442612648,0.48969510197639465,0.9773446917533875
1782891281155522600,10.7845224609375,-0.14716020226478577,0.31677526235580444,1.1803505420684814
1782891281165544400,10.79454443359375,-0.15146759152412415,0.09815645217895508,1.2905513048171997
1782891281175566300,10.80456640625,-0.12949171662330627,-0.11129024624824524,1.2520912885665894
1782891281185588500,10.81458837890625,-0.07578468322753906,-0.28806599974632263,1.0909630060195923
1782891281195610600,10.824610595703126,-0.03268221765756607,-0.3992423117160797,0.8937023878097534
1782891281205632500,10.834632568359375,-0.045301321893930435,-0.41898825764656067,0.7458372712135315
1782891281215654700,10.844654541015625,-0.09965457767248154,-0.3462038040161133,0.7318907976150513
1782891281225676500,10.854676513671874,-0.1718083918094635,-0.3986915051937103,0.7376038432121277
1782891281235698400,10.864698486328125,-0.20567181706428528,-0.8173769116401672,0.49212217330932617
1782891281245720600,10.874720458984376,-0.18641704320907593,-1.4123117923736572,-0.17945128679275513
1782891281255742500,10.884742431640625,-0.1519261747598648,-1.618398904800415,-1.0352016687393188
1782891281265764400,10.894764404296875,-0.21452005207538605,-1.3126771450042725,-1.7636914253234863
1782891281275786500,10.904786376953124,-0.38253650069236755,-0.6632874608039856,-2.1323821544647217
1782891281285808600,10.91480859375,-0.5391131043434143,0.17002712190151215,-2.039997100830078
1782891281295830500,10.92483056640625,-0.5680885910987854,0.8629827499389648,-1.6328966617584229
1782891281305852400,10.934852294921875,-0.4193160831928253,1.169013261795044,-1.107460379600525
1782891281315874600,10.94487451171875,-0.17542432248592377,1.0362610816955566,-0.6218335032463074
1782891281325896400,10.954896484375,0.06521265208721161,0.6168082356452942,-0.25617706775665283
1782891281335918600,10.964918701171875,0.24804291129112244,0.11972388625144958,0.0013391602551564574
1782891281345940500,10.9749404296875,0.3535214960575104,-0.3215426206588745,0.1897689253091812
1782891281355963000,10.984962890625,0.38988056778907776,-0.6331111192703247,0.3347194492816925
1782891281365984800,10.99498486328125,0.41250136494636536,-0.8149730563163757,0.45983296632766724
1782891281376006700,11.005006591796874,0.416520357131958,-0.9108867645263672,0.5462749600410461
1782891281386028500,11.015028564453125,0.4123857915401459,-0.8886392116546631,0.6210309267044067
1782891281396050700,11.02505078125,0.39311593770980835,-0.6866062879562378,0.6032136082649231
1782891281406072600,11.035072509765625,0.3182767629623413,-0.4997584819793701,0.5089731812477112
1782891281416094500,11.045094482421876,0.1308072805404663,-0.3280676603317261,0.3370583951473236
1782891281426116600,11.05511669921875,-0.04163217172026634,-0.13260483741760254,0.24588216841220856
1782891281436138800,11.065138671875,-0.14246638119220734,0.05141559615731239,0.14255818724632263
1782891281446160600,11.07516064453125,-0.156352236866951,0.05863869935274124,0.057624004781246185
1782891281456182800,11.085182861328125,-0.06060972437262535,0.03546439856290817,0.08286438137292862
1782891281466204700,11.09520458984375,0.10255403816699982,0.08571229875087738,0.1790086030960083
1782891281476226600,11.1052265625,0.2609580457210541,0.13391762971878052,0.2889348566532135
1782891281486248700,11.115248779296875,0.31329840421676636,0.21181337535381317,0.3902759253978729
1782891281496270600,11.1252705078125,0.23540069162845612,0.18954803049564362,0.44812244176864624
1782891281506292500,11.13529248046875,0.12952356040477753,0.13429060578346252,0.5242198705673218
1782891281516314600,11.145314697265626,0.074138343334198,0.07083307206630707,0.6067845225334167
1782891281526336800,11.155336669921875,0.07304716110229492,0.07905509322881699,0.6596038341522217
1782891281536358700,11.165358642578125,0.09381688386201859,0.1548531949520111,0.6759948134422302
1782891281546380800,11.175380859375,0.10215536504983902,0.2341662049293518,0.6609757542610168
1782891281556402700,11.185402587890625,0.10290610790252686,0.2645704746246338,0.6369040012359619
1782891281566424600,11.195424560546876,0.13726294040679932,0.2181655466556549,0.628284215927124
1782891281576446500,11.205446533203125,0.16611243784427643,0.19073152542114258,0.621698260307312
1782891281586468600,11.215468505859375,0.10493142902851105,0.14334754645824432,0.6502619385719299
1782891281596490500,11.225490478515624,-0.021827317774295807,0.08235477656126022,0.7912957072257996
1782891281606512600,11.2355126953125,-0.13687893748283386,-0.21798117458820343,0.9248499274253845
1782891281616534800,11.24553466796875,-0.20281800627708435,-0.6042047739028931,0.8578194975852966
1782891281626556700,11.255556640625,-0.3344707190990448,-0.8732664585113525,0.5633861422538757
1782891281636578600,11.26557861328125,-0.536009669303894,-0.7953485250473022,0.14477261900901794
1782891281646600700,11.2756005859375,-0.6658969521522522,-0.44890841841697693,-0.25672414898872375
1782891281656622600,11.28562255859375,-0.6972306370735168,-0.05613265186548233,-0.5456792116165161
