time,seconds_elapsed,z,y,x
1782891270433230600,0.062230712890625,1.0227491855621338,0.1352451741695404,1.7715020179748535
1782891270443252700,0.072252685546875,1.231797695159912,-0.0793353021144867,1.9603224992752075
1782891270453274600,0.082274658203125,1.3628665208816528,-0.7602443099021912,1.9934778213500977
1782891270463296800,0.092296875,1.2647626399993896,-1.2753514051437378,1.8494646549224854
1782891270473318700,0.102318603515625,0.7981046438217163,-1.2662007808685303,1.5404146909713745
1782891270483340800,0.1123408203125,-0.08127115666866302,-1.1096822023391724,1.1710180044174194
1782891270493362700,0.12236279296875,-1.0599000453948975,-1.2414720058441162,0.8394461870193481
1782891270503384600,0.132384521484375,-1.795392394065857,-1.7576466798782349,0.5801347494125366
1782891270513406700,0.14240673828125,-2.1990246772766113,-2.49473237991333,0.38221579790115356
1782891270523428600,0.1524287109375,-2.3803021907806396,-3.1519012451171875,0.22178645431995392
1782891270533450500,0.162450439453125,-2.409121036529541,-3.169483184814453,-0.015325427055358887
1782891270543472600,0.17247265625,-2.31935453414917,-2.88114595413208,-0.3035156726837158
1782891270553494800,0.182494873046875,-1.7095386981964111,-1.9848216772079468,-0.6106444597244263
1782891270563516700,0.1925166015625,-0.4916757345199585,-0.5260672569274902,-0.8788971900939941
1782891270573538800,0.202538818359375,1.0147833824157715,1.152896761894226,-1.1663875579833984
1782891270583560700,0.212560791015625,1.7687890529632568,1.713037133216858,-1.7824348211288452
1782891270593582600,0.22258251953125,1.814602017402649,1.358814001083374,-2.095426321029663
1782891270603604700,0.232604736328125,1.9191657304763794,0.9736927151679993,-2.0654306411743164
1782891270613626600,0.242626708984375,1.8895820379257202,0.3945190906524658,-1.7730282545089722
1782891270623648800,0.252648681640625,1.5951173305511475,-0.24143126606941223,-1.3243210315704346
1782891270633670700,0.262670654296875,1.1763968467712402,-0.8079303503036499,-0.828759491443634
1782891270643692800,0.27269287109375,0.9364113807678223,-1.2898461818695068,-0.5456662774085999
1782891270653714700,0.282714599609375,0.8591059446334839,-1.4803828001022339,-0.3999924063682556
1782891270663736600,0.292736572265625,0.8245668411254883,-1.3474292755126953,-0.3080587685108185
1782891270673758700,0.3027587890625,0.84759521484375,-1.2130461931228638,-0.37573954463005066
1782891270683780600,0.312780517578125,0.9145830273628235,-1.0885002613067627,-0.5342431664466858
1782891270693802500,0.322802490234375,0.9956586956977844,-0.9358036518096924,-0.7079081535339355
1782891270703824600,0.33282470703125,1.0948630571365356,-0.8602220416069031,-0.8634207844734192
1782891270713846800,0.3428466796875,1.184587836265564,-0.8916583061218262,-1.0019201040267944
1782891270723868700,0.35286865234375,1.2292238473892212,-1.087896466255188,-1.0960100889205933
1782891270733890800,0.362890869140625,1.2350265979766846,-1.3953344821929932,-1.1064733266830444
1782891270743912700,0.37291259765625,1.2439569234848022,-1.6921344995498657,-1.0791677236557007
1782891270753934600,0.3829345703125,1.2756259441375732,-1.971933126449585,-1.0530320405960083
1782891270763956700,0.392956787109375,1.289162278175354,-2.168259382247925,-1.0432991981506348
1782891270773978600,0.402978515625,1.2585095167160034,-2.2673990726470947,-1.124280333518982
1782891270784000500,0.41300048828125,1.2171189785003662,-2.3183512687683105,-1.3268076181411743
1782891270794023000,0.42302294921875,1.1915640830993652,-2.450239419937134,-1.6505987644195557
1782891270804044800,0.433044921875,1.1898103952407837,-2.61160945892334,-1.9947316646575928
1782891270814066700,0.443066650390625,1.2272576093673706,-2.7256479263305664,-2.2546846866607666
1782891270824088600,0.453088623046875,1.2985302209854126,-2.845250129699707,-2.378568172454834
1782891270834110700,0.46311083984375,1.3196277618408203,-2.9388060569763184,-2.320244789123535
1782891270844132600,0.473132568359375,1.2441987991333008,-2.913463830947876,-2.113109588623047
1782891270854154500,0.483154541015625,1.0799442529678345,-2.672105312347412,-1.8057360649108887
1782891270864176600,0.4931767578125,0.8846144676208496,-2.2152578830718994,-1.49472177028656
1782891270874198800,0.50319873046875,0.7433716058731079,-1.6960804462432861,-1.322039246559143
1782891270884220700,0.513220703125,0.6398151516914368,-1.1777827739715576,-1.2903414964675903
1782891270894242800,0.523242919921875,0.5744118690490723,-0.7670913338661194,-1.3460724353790283
1782891270904264700,0.5332646484375,0.5005882382392883,-0.42995163798332214,-1.455331802368164
1782891270914286600,0.54328662109375,0.40889641642570496,-0.15972468256950378,-1.5900914669036865
1782891270924308700,0.553308837890625,0.32539886236190796,-0.011973838321864605,-1.7006664276123047
1782891270934330600,0.56333056640625,0.24326831102371216,0.03906484320759773,-1.7328147888183594
1782891270944352500,0.5733525390625,0.17615719139575958,0.0252212006598711,-1.681066870689392
1782891270954375700,0.583375732421875,0.12276080995798111,0.01549666840583086,-1.5636368989944458
1782891270964397600,0.5933974609375,0.07371416687965393,0.06178800016641617,-1.421268343925476
1782891270974419700,0.603419677734375,0.022526348009705544,0.15609639883041382,-1.2697584629058838
1782891270984441900,0.61344189453125,-0.008780175819993019,0.28047454357147217,-1.1111027002334595
1782891270994463700,0.623463623046875,0.00004926848123432137,0.40331363677978516,-0.9121243953704834
1782891271004485600,0.633485595703125,0.006597981322556734,0.5317466855049133,-0.6959987878799438
1782891271014507800,0.6435078125,-0.015080948360264301,0.6846835017204285,-0.47968217730522156
1782891271024529700,0.65352978515625,-0.052140165120363235,0.8128558993339539,-0.2831614017486572
1782891271034551600,0.663551513671875,-0.11609358340501785,0.9377277493476868,-0.06107427179813385
1782891271044573700,0.67357373046875,-0.22511513531208038,1.0958197116851807,0.1853853017091751
1782891271054595600,0.683595703125,-0.356444388628006,1.243310570716858,0.41156038641929626
1782891271064617700,0.69361767578125,-0.44609013199806213,1.3408373594284058,0.6152072548866272
1782891271074640000,0.703639892578125,-0.4759761393070221,1.3283491134643555,0.7490193843841553
1782891271084661800,0.713661865234375,-0.45053762197494507,1.1019015312194824,0.771975576877594
1782891271094683600,0.72368359375,-0.4038664996623993,0.6824992299079895,0.6547344326972961
1782891271104705500,0.73370556640625,-0.346428245306015,0.22101520001888275,0.46421879529953003
1782891271114727700,0.743727783203125,-0.2609434425830841,-0.1757073849439621,0.2146124392747879
1782891271124749600,0.75374951171875,-0.15671025216579437,-0.47726109623908997,-0.12261539697647095
1782891271134771700,0.763771728515625,-0.051172107458114624,-0.6520366668701172,-0.4426749050617218
1782891271144793900,0.7737939453125,0.011683819815516472,-0.7771316766738892,-0.7104730606079102
1782891271154815700,0.783815673828125,0.06156269833445549,-0.947558581829071,-0.954146683216095
1782891271164837600,0.793837646484375,0.12771561741828918,-1.2124298810958862,-1.186737060546875
1782891271174859800,0.80385986328125,0.2518532872200012,-1.6090919971466064,-1.4053248167037964
1782891271184881700,0.813881591796875,0.39627596735954285,-2.139352321624756,-1.651693344116211
1782891271194903600,0.823903564453125,0.5688496232032776,-2.6804656982421875,-1.863069772720337
1782891271204925700,0.83392578125,0.67110276222229,-3.160396099090576,-2.0049641132354736
1782891271214947600,0.843947509765625,0.7845216989517212,-3.3401601314544678,-2.006720542907715
1782891271224969700,0.8539697265625,0.9644749760627747,-3.185410499572754,-1.8525334596633911
1782891271234991900,0.863991943359375,1.1727107763290405,-2.8232691287994385,-1.6896183490753174
1782891271245013800,0.874013671875,1.373605489730835,-2.346940040588379,-1.6163084506988525
1782891271255035600,0.88403564453125,1.428517460823059,-1.800234079360962,-1.599774718284607
1782891271265057800,0.894057861328125,1.3266206979751587,-1.2614113092422485,-1.603800654411316
1782891271275079700,0.90407958984375,1.1698094606399536,-0.7752565741539001,-1.6677616834640503
1782891271285101600,0.9141015625,1.0396599769592285,-0.3391386568546295,-1.740755558013916
1782891271295123500,0.92412353515625,0.898404598236084,0.025784458965063095,-1.7938024997711182
1782891271305145900,0.934145751953125,0.7271734476089478,0.3841085135936737,-1.74031400680542
1782891271315167700,0.944167724609375,0.4963700771331787,0.6864124536514282,-1.5099968910217285
1782891271325189600,0.954189697265625,0.20789220929145813,0.9579688906669617,-1.0837923288345337
1782891271335211800,0.964211669921875,-0.06491029262542725,1.141536831855774,-0.5512298941612244
1782891271345233700,0.974233642578125,-0.2970268726348877,1.2686572074890137,0.012427374720573425
1782891271355255600,0.984255615234375,-0.43821942806243896,1.3438981771469116,0.49691522121429443
1782891271365277400,0.99427734375,-0.5101783275604248,1.388255000114441,0.8472554087638855
1782891271375299600,1.004299560546875,-0.5813882946968079,1.3617414236068726,1.0538532733917236
1782891271385321700,1.01432177734375,-0.6778075098991394,1.2908490896224976,1.1222715377807617
1782891271395343600,1.024343505859375,-0.748212456703186,1.259131908416748,1.1135272979736328
1782891271405365800,1.03436572265625,-0.8370685577392578,1.2693171501159668,1.0217680931091309
1782891271415387600,1.0443876953125,-0.8698499202728271,1.431273341178894,0.9389685392379761
1782891271425409500,1.054409423828125,-0.8621717691421509,1.696613073348999,0.8553751111030579
1782891271435431700,1.064431640625,-0.8595155477523804,1.9230773448944092,0.7222695350646973
1782891271445453600,1.07445361328125,-0.8628889322280884,2.0898079872131348,0.6048377156257629
1782891271455475500,1.084475341796875,-0.8816935420036316,2.190490245819092,0.5426334738731384
1782891271465497900,1.094497802734375,-0.8923773169517517,2.2647807598114014,0.5818261504173279
1782891271475519700,1.104519775390625,-0.8538278341293335,2.264326572418213,0.7263984680175781
1782891271485541600,1.114541748046875,-0.7413582801818848,2.0302932262420654,0.9365962147712708
1782891271495563800,1.124563720703125,-0.6095789074897766,1.6059402227401733,1.1536734104156494
1782891271505585700,1.134585693359375,-0.5085015892982483,1.1223548650741577,1.2969788312911987
1782891271515607600,1.144607666015625,-0.41925984621047974,0.7484124302864075,1.322110891342163
1782891271525629700,1.154629638671875,-0.32811102271080017,0.4927079677581787,1.2476733922958374
1782891271535651600,1.164651611328125,-0.28534677624702454,0.31633612513542175,1.1203428506851196
1782891271545673700,1.174673828125,-0.2632817029953003,0.21573016047477722,0.9499207735061646
1782891271555695600,1.184695556640625,-0.24660737812519073,0.17042286694049835,0.6980273127555847
1782891271565717800,1.1947177734375,-0.21338817477226257,0.2138904482126236,0.4438072741031647
1782891271575739600,1.20473974609375,-0.22527839243412018,0.2944750487804413,0.28359255194664
1782891271585761500,1.214761474609375,-0.2743367552757263,0.4079185128211975,0.2350655049085617
1782891271595783700,1.22478369140625,-0.33090442419052124,0.5092246532440186,0.2584459185600281
1782891271605805600,1.2348056640625,-0.39478087425231934,0.4893566370010376,0.3106878399848938
1782891271615827500,1.244827392578125,-0.420918732881546,0.374227911233902,0.35414236783981323
1782891271625849600,1.254849609375,-0.37949272990226746,0.17438006401062012,0.33816924691200256
1782891271635871700,1.264871826171875,-0.2853292226791382,-0.11713887006044388,0.2662620544433594
1782891271645893600,1.2748935546875,-0.16362515091896057,-0.4723750054836273,0.20271369814872742
1782891271655915800,1.284915771484375,-0.1289324164390564,-0.9910178780555725,0.0741991326212883
1782891271665937700,1.294937744140625,-0.12102548778057098,-1.5537790060043335,-0.1187458261847496
1782891271675959600,1.30495947265625,-0.13801220059394836,-1.938389539718628,-0.36698731780052185
1782891271685981700,1.314981689453125,-0.2402333766222,-2.0386788845062256,-0.668492317199707
1782891271696003600,1.325003662109375,-0.35102275013923645,-1.746891736984253,-0.9405025243759155
1782891271706025700,1.335025634765625,-0.42824721336364746,-1.272569179534912,-1.199967384338379
1782891271716047600,1.345047607421875,-0.4501948654651642,-0.7936627268791199,-1.4621760845184326
1782891271726069800,1.35506982421875,-0.38358601927757263,-0.34160420298576355,-1.6191617250442505
1782891271736092700,1.3650927734375,-0.28535982966423035,-0.08095476776361465,-1.6741522550582886
1782891271746114800,1.37511474609375,-0.1848132610321045,-0.12357466667890549,-1.666643500328064
1782891271756136700,1.38513671875,-0.055815860629081726,-0.37834224104881287,-1.6646673679351807
1782891271766158600,1.39515869140625,0.05445738136768341,-0.6762205362319946,-1.6703498363494873
1782891271776180700,1.4051806640625,0.11469621956348419,-0.8078270554542542,-1.622925877571106
1782891271786202600,1.41520263671875,0.14317500591278076,-0.6937747597694397,-1.4969388246536255
1782891271796224500,1.425224609375,0.17904990911483765,-0.27155613899230957,-1.2452051639556885
1782891271806246700,1.43524658203125,0.23319996893405914,0.2745751142501831,-0.9264698028564453
1782891271816268800,1.445268798828125,0.2664383351802826,0.7631892561912537,-0.5569546222686768
1782891271826290700,1.455290771484375,0.2534447908401489,1.2089624404907227,-0.19933255016803741
1782891271836312600,1.4653125,0.20573851466178894,1.5091444253921509,0.07996673882007599
1782891271846334700,1.475334716796875,0.12139194458723068,1.6589879989624023,0.2925085723400116
1782891271856356600,1.485356689453125,0.008081895299255848,1.6482887268066406,0.43399912118911743
1782891271866378500,1.49537841796875,-0.08928939700126648,1.5646315813064575,0.5200125575065613
1782891271876400600,1.505400634765625,-0.16103176772594452,1.4228132963180542,0.577791154384613
1782891271886422500,1.515422607421875,-0.19167622923851013,1.3076578378677368,0.6134341359138489
1782891271896444700,1.525444580078125,-0.19902467727661133,1.256449580192566,0.6390382647514343
1782891271906466800,1.535466796875,-0.19976504147052765,1.282813549041748,0.692546010017395
1782891271916488700,1.54548876953125,-0.19654448330402374,1.447412371635437,0.8067665696144104
1782891271926510600,1.555510498046875,-0.18492910265922546,1.714034914970398,0.9644696116447449
1782891271936532700,1.56553271484375,-0.17316804826259613,1.9714385271072388,1.1364837884902954
1782891271946554600,1.5755546875,-0.16897223889827728,2.153588056564331,1.3441921472549438
1782891271956576500,1.585576416015625,-0.15954545140266418,2.229353904724121,1.5431979894638062
1782891271966598700,1.5955986328125,-0.0958370491862297,2.143273115158081,1.6961544752120972
1782891271976620800,1.605620849609375,0.010494984686374664,1.8212839365005493,1.730246901512146
1782891271986642700,1.615642578125,0.11358515173196793,1.3617658615112305,1.598523497581482
1782891271996664800,1.625664794921875,0.2527922987937927,0.83384770154953,1.3295255899429321
1782891272006686700,1.635686767578125,0.3986285924911499,0.3289533853530884,1.0319980382919312
1782891272016708600,1.64570849609375,0.4708639085292816,-0.05108901485800743,0.7776805758476257
1782891272026730500,1.65573046875,0.5160492658615112,-0.21254394948482513,0.6218544840812683
1782891272036752600,1.665752685546875,0.500381350517273,-0.17126549780368805,0.5656301379203796
1782891272046774500,1.6757744140625,0.4218345880508423,-0.03008626401424408,0.5928915739059448
1782891272056796700,1.685796630859375,0.3294828236103058,0.23723119497299194,0.7005663514137268
1782891272066818800,1.69581884765625,0.2504423260688782,0.5882656574249268,0.8105562329292297
1782891272076840700,1.7058408203125,0.2044825702905655,0.9079307317733765,0.8578489422798157
1782891272086862600,1.715862548828125,0.18383029103279114,1.1113430261611938,0.8134050369262695
1782891272096884700,1.725884765625,0.14341707527637482,1.1103754043579102,0.702416718006134
1782891272106906600,1.73590673828125,0.06867759674787521,0.9255515336990356,0.6067942976951599
1782891272116928500,1.745928466796875,-0.06072593107819557,0.5961624383926392,0.5504668951034546
1782891272126950700,1.75595068359375,-0.21797360479831696,0.2513534128665924,0.5012082457542419
1782891272136972500,1.76597265625,-0.37426096200942993,0.01757286861538887,0.4303279519081116
1782891272146994700,1.77599462890625,-0.4914461672306061,-0.06521069258451462,0.3890303075313568
1782891272157016800,1.786016845703125,-0.541410505771637,-0.00048709215479902923,0.42243432998657227
1782891272167038700,1.796038818359375,-0.5484058260917664,0.16116198897361755,0.42781898379325867
1782891272177060600,1.806060546875,-0.5353667736053467,0.3922053277492523,0.3332866132259369
1782891272187082500,1.81608251953125,-0.5735940337181091,0.5811794996261597,0.1671314686536789
1782891272197104600,1.826104736328125,-0.646225094795227,0.6927042007446289,-0.03717959299683571
1782891272207126500,1.83612646484375,-0.7013810276985168,0.6112620234489441,-0.19283629953861237
1782891272217148400,1.8461484375,-0.7580637335777283,0.43282651901245117,-0.27292659878730774
1782891272227170800,1.8561708984375,-0.7732309699058533,0.21968628466129303,-0.3456663191318512
1782891272237192700,1.866192626953125,-0.758974015712738,0.04990497604012489,-0.4206489622592926
1782891272247214600,1.876214599609375,-0.7058548331260681,-0.0615571029484272,-0.47761210799217224
1782891272257236700,1.88623681640625,-0.6313188672065735,-0.10225659608840942,-0.5005730986595154
1782891272267258600,1.896258544921875,-0.5456353425979614,-0.045632198452949524,-0.45570918917655945
1782891272277280500,1.906280517578125,-0.4770861268043518,0.09664051979780197,-0.36084073781967163
1782891272287302700,1.916302734375,-0.4584019184112549,0.2971366047859192,-0.23489053547382355
1782891272297324500,1.926324462890625,-0.48334935307502747,0.5159781575202942,-0.09521972388029099
1782891272307346700,1.9363466796875,-0.49231088161468506,0.7259180545806885,0.017485249787569046
1782891272317368800,1.946368896484375,-0.471022367477417,0.8803094625473022,0.06771113723516464
1782891272327390500,1.956390380859375,-0.4202079474925995,0.9751476049423218,0.07457783073186874
1782891272337412400,1.966412353515625,-0.38315510749816895,1.0026726722717285,0.05853894352912903
1782891272347434500,1.9764345703125,-0.3675239384174347,0.939057469367981,0.05230821296572685
1782891272357456400,1.986456298828125,-0.36702728271484375,0.867987334728241,0.09146839380264282
1782891272367478300,1.996478271484375,-0.34005025029182434,0.8637204170227051,0.14331881701946259
1782891272377500400,2.00650048828125,-0.30097314715385437,0.921488881111145,0.19418279826641083
1782891272387522600,2.0165224609375,-0.25835272669792175,1.0178964138031006,0.26465296745300293
1782891272397544400,2.02654443359375,-0.2258693426847458,1.1136354207992554,0.33462458848953247
1782891272407566600,2.036566650390625,-0.18765538930892944,1.1575876474380493,0.41793492436408997
1782891272417588500,2.04658837890625,-0.14830131828784943,1.1638737916946411,0.5338734984397888
1782891272427610400,2.0566103515625,-0.05855998396873474,1.1221274137496948,0.6807974576950073
1782891272437632300,2.06663232421875,0.05730030685663223,1.0315208435058594,0.8066941499710083
1782891272447654400,2.076654296875,0.16817383468151093,0.8946359753608704,0.8913245797157288
1782891272457676300,2.08667626953125,0.26072853803634644,0.6971647143363953,0.9293470978736877
1782891272467698400,2.096698486328125,0.3132471442222595,0.495896577835083,0.9464035630226135
1782891272477720600,2.106720458984375,0.3504914343357086,0.2985113263130188,0.9191336035728455
1782891272487742500,2.116742431640625,0.4084077477455139,0.10013725608587265,0.8456910848617554
1782891272497764400,2.126764404296875,0.45397335290908813,-0.07990708202123642,0.7518306374549866
1782891272507786500,2.136786376953125,0.46405288577079773,-0.19744569063186646,0.6697496175765991
1782891272517808400,2.146808349609375,0.42038050293922424,-0.2861548066139221,0.6447339653968811
1782891272527830300,2.156830322265625,0.3495686650276184,-0.36524829268455505,0.6272727251052856
1782891272537852400,2.166852294921875,0.2680133283138275,-0.3818879723548889,0.6078686714172363
1782891272547874600,2.17687451171875,0.19264721870422363,-0.3467576801776886,0.5895982980728149
1782891272557896400,2.186896484375,0.1354028284549713,-0.30931738018989563,0.5621235370635986
1782891272567918600,2.196918701171875,0.11031904816627502,-0.29225343465805054,0.5214163064956665
1782891272577940500,2.2069404296875,0.10398472100496292,-0.32220521569252014,0.4614746868610382
1782891272587962400,2.21696240234375,0.10304329544305801,-0.42696064710617065,0.3871791362762451
1782891272597984500,2.226984619140625,0.09208598732948303,-0.6283944249153137,0.29432350397109985
1782891272608006400,2.23700634765625,0.026097115129232407,-0.8984219431877136,0.18599224090576172
1782891272618028300,2.2470283203125,-0.047273240983486176,-1.1488381624221802,0.06287536770105362
1782891272628050400,2.257050537109375,-0.08048046380281448,-1.2776999473571777,-0.05980873852968216
1782891272638072600,2.267072509765625,-0.10363185405731201,-1.273356318473816,-0.16289277374744415
1782891272648094500,2.277094482421875,-0.09557259827852249,-1.1613060235977173,-0.26469478011131287
1782891272658116400,2.287116455078125,-0.04837552085518837,-1.0370501279830933,-0.39860570430755615
1782891272668138500,2.297138427734375,-0.0036993969697505236,-1.0082809925079346,-0.5183004140853882
1782891272678160400,2.307160400390625,-0.015062039718031883,-1.0795235633850098,-0.5742741823196411
1782891272688182300,2.317182373046875,-0.06282822787761688,-1.1411956548690796,-0.5768153667449951
1782891272698204400,2.327204345703125,-0.10772433131933212,-1.131440281867981,-0.5651057362556458
1782891272708226600,2.3372265625,-0.1689344197511673,-0.989191472530365,-0.6086210012435913
1782891272718248400,2.34724853515625,-0.2142784744501114,-0.7344910502433777,-0.7290768027305603
1782891272728271400,2.357271240234375,-0.2602315843105316,-0.42637714743614197,-0.853798508644104
1782891272738292500,2.36729248046875,-0.3044523000717163,-0.0904792994260788,-0.8764857053756714
1782891272748314400,2.377314453125,-0.3269818425178528,0.21172156929969788,-0.8028546571731567
1782891272758336500,2.38733642578125,-0.31906694173812866,0.496645450592041,-0.6866849064826965
1782891272768358400,2.3973583984375,-0.295288622379303,0.7121633291244507,-0.5976149439811707
1782891272778381300,2.40738134765625,-0.24136868119239807,0.8650671243667603,-0.5426161289215088
1782891272788403500,2.417403564453125,-0.1790379285812378,0.970273494720459,-0.492908239364624
1782891272798425300,2.42742529296875,-0.12474299967288971,1.0420321226119995,-0.45526206493377686
1782891272808447500,2.437447509765625,-0.1056089848279953,1.0788899660110474,-0.432015061378479
1782891272818469600,2.4474697265625,-0.11731677502393723,1.087658405303955,-0.39499393105506897
1782891272828491500,2.457491455078125,-0.15183374285697937,1.1293246746063232,-0.33005595207214355
1782891272838513400,2.467513427734375,-0.15093465149402618,1.2311362028121948,-0.2579497992992401
1782891272848535600,2.47753564453125,-0.11157446354627609,1.3885889053344727,-0.14222797751426697
1782891272858557400,2.487557373046875,-0.04687616229057312,1.5337024927139282,0.04326464980840683
1782891272868579300,2.497579345703125,0.021514080464839935,1.6366603374481201,0.2757852375507355
1782891272878601500,2.5076015625,0.06796573102474213,1.6988991498947144,0.5260677933692932
1782891272888623400,2.517623291015625,0.10703350603580475,1.7241584062576294,0.7450525760650635
1782891272898645500,2.5276455078125,0.14014512300491333,1.7041854858398438,0.9111957550048828
1782891272908667400,2.53766748046875,0.17583733797073364,1.6202248334884644,1.017032504081726
1782891272918689500,2.547689453125,0.23352886736392975,1.4931824207305908,1.0704426765441895
1782891272928711400,2.55771142578125,0.27183443307876587,1.332736849784851,1.0897407531738281
1782891272938733300,2.5677333984375,0.3028709292411804,1.1861168146133423,1.0887383222579956
1782891272948755500,2.57775537109375,0.3523692190647125,0.9985581040382385,1.1462477445602417
1782891272958777300,2.58777734375,0.24268268048763275,0.7101356387138367,1.1459105014801025
1782891272968799200,2.59779931640625,0.13806013762950897,0.4889973998069763,1.0588464736938477
1782891272978821600,2.607821533203125,0.07713792473077774,0.3814839720726013,0.9834899306297302
1782891272988843500,2.617843505859375,-0.00917645450681448,0.3072531521320343,0.955634355545044
1782891272998865400,2.627865478515625,-0.08667843788862228,0.2508071959018707,1.0377646684646606
1782891273008887600,2.637887451171875,-0.14113742113113403,0.2616654336452484,1.208092451095581
1782891273018909400,2.647909423828125,-0.16722095012664795,0.3329468071460724,1.3694714307785034
1782891273028931300,2.657931396484375,-0.1856854408979416,0.6142815351486206,1.3567122220993042
1782891273038953500,2.667953369140625,-0.07757814973592758,0.7246514558792114,1.3818026781082153
1782891273048975400,2.677975341796875,0.08588294684886932,0.4972901940345764,1.5535645484924316
1782891273058997500,2.68799755859375,0.09535448253154755,0.09415605664253235,1.5060980319976807
1782891273069019400,2.698019287109375,0.10608036071062088,-0.23946744203567505,1.2848596572875977
1782891273079041500,2.70804150390625,0.25810956954956055,-0.3635481297969818,1.078490972518921
1782891273089063400,2.7180634765625,0.3550877869129181,-0.4389778971672058,0.8677833080291748
1782891273099085300,2.728085205078125,0.4319618046283722,-0.4120866358280182,0.7092810273170471
1782891273109107500,2.738107421875,0.4462573826313019,-0.3986720144748688,0.5845451951026917
1782891273119129300,2.74812939453125,0.3947529196739197,-0.4626065194606781,0.49464887380599976
1782891273129151200,2.758151123046875,0.3230941593647003,-0.6346962451934814,0.42279252409935
1782891273139173600,2.768173583984375,0.21906709671020508,-0.8754960894584656,0.32205820083618164
1782891273149195500,2.778195556640625,0.10986844450235367,-1.0147663354873657,0.19404031336307526
1782891273159217400,2.788217529296875,0.03923581913113594,-1.023194432258606,-0.011231881566345692
1782891273169239600,2.798239501953125,0.011177021078765392,-0.9249131679534912,-0.26861920952796936
1782891273179261400,2.808261474609375,-0.04687802493572235,-0.7128720283508301,-0.4833027422428131
1782891273189283300,2.818283447265625,-0.14707998931407928,-0.472099632024765,-0.6151105761528015
1782891273199305500,2.828305419921875,-0.24700525403022766,-0.2430829554796219,-0.7218921780586243
1782891273209327400,2.838327392578125,-0.308884859085083,-0.050036270171403885,-0.8306974768638611
1782891273219349500,2.848349609375,-0.3032006323337555,0.0640530213713646,-0.9045596718788147
1782891273229371600,2.85837158203125,-0.22863583266735077,0.0725674107670784,-0.9532217979431152
1782891273239393500,2.8683935546875,-0.11950749158859253,-0.0430968701839447,-0.9498845934867859
1782891273249415400,2.87841552734375,-0.042096588760614395,-0.2305527776479721,-0.8944319486618042
1782891273259437300,2.888437255859375,-0.008959139697253704,-0.4416077733039856,-0.8433453440666199
1782891273269459500,2.89845947265625,0.017526796087622643,-0.5605291128158569,-0.8188216090202332
1782891273279481300,2.9084814453125,0.06666504591703415,-0.5545689463615417,-0.8483489155769348
1782891273289503200,2.918503173828125,0.11477718502283096,-0.4998018443584442,-0.9293510913848877
1782891273299525400,2.928525390625,0.1447952687740326,-0.43289709091186523,-1.0175352096557617
1782891273309547500,2.938547607421875,0.14521685242652893,-0.3700707256793976,-1.1233948469161987
1782891273319569400,2.9485693359375,0.12036076188087463,-0.3719828724861145,-1.139375925064087
1782891273329591300,2.95859130859375,0.11539184302091599,-0.39437341690063477,-1.0049155950546265
1782891273339613200,2.96861328125,0.1864873170852661,-0.39368578791618347,-0.7720897793769836
1782891273349635000,2.978635009765625,0.30088821053504944,-0.28653162717819214,-0.48846420645713806
1782891273359657200,2.9886572265625,0.4353344142436981,-0.13165682554244995,-0.22460754215717316
1782891273369679000,2.99867919921875,0.5582531690597534,0.046304114162921906,-0.011952533386647701
1782891273379701200,3.008701171875,0.6152011156082153,0.27244511246681213,0.16369332373142242
1782891273389723400,3.018723388671875,0.6300367712974548,0.44991230964660645,0.279559463262558
1782891273399745300,3.028745361328125,0.5939592123031616,0.5265815258026123,0.33551862835884094
1782891273409767200,3.03876708984375,0.5204522609710693,0.5136817097663879,0.3735453486442566
1782891273419789000,3.0487890625,0.4412040412425995,0.4444671869277954,0.4201701283454895
1782891273429811200,3.058811279296875,0.38589709997177124,0.34027209877967834,0.4437830448150635
1782891273439833000,3.0688330078125,0.37533554434776306,0.18775418400764465,0.431684285402298
1782891273449855000,3.07885498046875,0.38123682141304016,-0.008724781684577465,0.39441388845443726
1782891273459877400,3.08887744140625,0.37838271260261536,-0.19830164313316345,0.36178404092788696
1782891273469899300,3.098899169921875,0.36592525243759155,-0.3605445921421051,0.3392723500728607
1782891273479921200,3.108921142578125,0.30442219972610474,-0.47881531715393066,0.2904890775680542
1782891273489943300,3.118943359375,0.24434396624565125,-0.5358090996742249,0.2335648238658905
1782891273499965200,3.128965087890625,0.199664905667305,-0.5282185673713684,0.21753738820552826
1782891273509987000,3.138987060546875,0.14736521244049072,-0.49818581342697144,0.22023490071296692
1782891273520009200,3.14900927734375,0.10370375961065292,-0.39635133743286133,0.27155932784080505
1782891273530031000,3.159031005859375,0.06916975229978561,-0.28558728098869324,0.3339207172393799
1782891273540053200,3.16905322265625,0.024462997913360596,-0.24970170855522156,0.4146097004413605
1782891273550075400,3.179075439453125,-0.05167065188288689,-0.21074073016643524,0.4878269135951996
1782891273560097300,3.18909716796875,-0.1626293957233429,-0.23456430435180664,0.5148409605026245
1782891273570119200,3.199119140625,-0.274772971868515,-0.24776479601860046,0.5030212998390198
1782891273580141000,3.20914111328125,-0.3884958028793335,-0.186679869890213,0.4722397029399872
1782891273590163200,3.2191630859375,-0.44626137614250183,-0.11636762320995331,0.41541317105293274
1782891273600185000,3.22918505859375,-0.448568195104599,-0.018313227221369743,0.32898348569869995
1782891273610207000,3.23920703125,-0.47497743368148804,0.08344988524913788,0.21886922419071198
1782891273620229000,3.24922900390625,-0.5156710743904114,0.12431316077709198,0.054311174899339676
1782891273630251300,3.259251220703125,-0.5409029126167297,-0.0026378610637038946,-0.19161869585514069
1782891273640273200,3.269273193359375,-0.5109383463859558,-0.3034179210662842,-0.4535493850708008
1782891273650295300,3.27929541015625,-0.43636906147003174,-0.7459191679954529,-0.6209247708320618
1782891273660317200,3.289317138671875,-0.3497191071510315,-1.2224644422531128,-0.5921376347541809
1782891273670339000,3.299339111328125,-0.28434625267982483,-1.4718228578567505,-0.3865455687046051
1782891273680361200,3.309361328125,-0.2932609021663666,-1.345229983329773,-0.1731419563293457
1782891273690383000,3.319383056640625,-0.37783944606781006,-0.8421605229377747,-0.12996865808963776
1782891273700405200,3.3294052734375,-0.4663032591342926,-0.15464895963668823,-0.2950012683868408
1782891273710427400,3.339427490234375,-0.498104065656662,0.5525934100151062,-0.5454766154289246
1782891273720449300,3.34944921875,-0.4321780502796173,1.0921392440795898,-0.6979908347129822
1782891273730471200,3.35947119140625,-0.31138157844543457,1.2484310865402222,-0.7282267212867737
1782891273740493300,3.369493408203125,-0.23906850814819336,1.0849201679229736,-0.6643140912055969
1782891273750515200,3.37951513671875,-0.2188527137041092,0.7843683362007141,-0.5485435128211975
1782891273760537000,3.389537109375,-0.2115282267332077,0.47012409567832947,-0.43027547001838684
1782891273770559000,3.39955908203125,-0.17046095430850983,0.23119167983531952,-0.3408169746398926
1782891273780581000,3.4095810546875,-0.09278612583875656,0.08204613626003265,-0.27484196424484253
1782891273790603300,3.419603271484375,-0.03496810421347618,0.0863809585571289,-0.2093753218650818
1782891273800625200,3.429625244140625,0.025063274428248405,0.21172955632209778,-0.14639823138713837
1782891273810647300,3.439647216796875,0.0778263583779335,0.383522093296051,-0.11350739002227783
1782891273820669200,3.449669189453125,0.11827178299427032,0.5575628876686096,-0.11417397856712341
1782891273830691000,3.459691162109375,0.13573572039604187,0.7018864750862122,-0.11848483234643936
1782891273840713200,3.469713134765625,0.139461487531662,0.7650553584098816,-0.10048506408929825
1782891273850735000,3.479735107421875,0.13619379699230194,0.750310480594635,-0.04093065485358238
1782891273860757000,3.489757080078125,0.13559670746326447,0.6630485653877258,0.07438927888870239
1782891273870779400,3.499779296875,0.16571146249771118,0.5436747670173645,0.2813006341457367
1782891273880801300,3.50980126953125,0.2643621563911438,0.39860597252845764,0.5414278507232666
1782891273890823200,3.5198232421875,0.43915870785713196,0.22081492841243744,0.7540692687034607
1782891273900845300,3.52984521484375,0.6083821058273315,0.023968182504177094,0.9015002846717834
1782891273910867200,3.5398671875,0.7166313529014587,-0.17320507764816284,0.9647945165634155
1782891273920889000,3.54988916015625,0.7615602016448975,-0.3589823842048645,0.9516089558601379
1782891273930911200,3.5599111328125,0.7730520367622375,-0.5195430517196655,0.8855381011962891
1782891273940933000,3.56993310546875,0.7690389156341553,-0.6186949014663696,0.8117583990097046
1782891273950955300,3.579955322265625,0.7589218020439148,-0.6479068994522095,0.7406147122383118
1782891273960977200,3.58997705078125,0.7346188426017761,-0.6208142638206482,0.6642197966575623
1782891273970999300,3.599999267578125,0.6793500185012817,-0.5606915354728699,0.5908912420272827
1782891273981021200,3.610021240234375,0.6073538661003113,-0.4830244481563568,0.5291325449943542
1782891273991043000,3.62004296875,0.5350791215896606,-0.4424956738948822,0.4919050335884094
1782891274001065200,3.630065185546875,0.472848504781723,-0.44006338715553284,0.46701592206954956
1782891274011087000,3.640087158203125,0.42069822549819946,-0.46493786573410034,0.49196121096611023
1782891274021109000,3.65010888671875,0.3630295991897583,-0.5424717664718628,0.5577231645584106
1782891274031131400,3.66013134765625,0.30435910820961,-0.7103675603866577,0.6091445684432983
1782891274041153300,3.6701533203125,0.2367345094680786,-0.9581467509269714,0.6198709607124329
1782891274051175200,3.680175048828125,0.15615445375442505,-1.2371786832809448,0.5442081689834595
1782891274061197300,3.690197265625,0.05668671429157257,-1.499111533164978,0.3887312412261963
1782891274071220200,3.70022021484375,-0.037881869822740555,-1.7009055614471436,0.1601603776216507
1782891274081241000,3.710240966796875,-0.13255058228969574,-1.8782659769058228,-0.12327665835618973
1782891274091264300,3.72026416015625,-0.22603313624858856,-2.025217294692993,-0.4336502254009247
1782891274101286100,3.7302861328125,-0.292029470205307,-2.1603691577911377,-0.7929577827453613
1782891274111308000,3.74030810546875,-0.24872779846191406,-2.4049439430236816,-1.2437374591827393
1782891274121330200,3.750330078125,-0.0581866055727005,-2.800459623336792,-1.7275079488754272
1782891274131352000,3.76035205078125,0.17959612607955933,-3.167815923690796,-2.1163618564605713
1782891274141374200,3.770374267578125,0.4180491864681244,-3.4292235374450684,-2.300489664077759
1782891274151396400,3.780396240234375,0.6586583256721497,-3.549335479736328,-2.229762554168701
1782891274161418200,3.790418212890625,0.920901894569397,-3.59926700592041,-1.9406225681304932
1782891274171440000,3.800440185546875,1.0406006574630737,-3.367582082748413,-1.5194727182388306
1782891274181462300,3.810462158203125,1.0376354455947876,-2.842900037765503,-0.9942877292633057
1782891274191484200,3.820484130859375,1.0023685693740845,-2.111842155456543,-0.4954632818698883
1782891274201506000,3.830506103515625,1.113520860671997,-1.3657739162445068,-0.2386154979467392
1782891274211528200,3.840528076171875,1.2539877891540527,-0.7599495053291321,-0.292217493057251
1782891274221550300,3.85055029296875,1.3458361625671387,-0.4279542565345764,-0.5338234305381775
1782891274231572200,3.860572265625,1.3537119626998901,-0.3208259642124176,-0.8553540706634521
1782891274241594000,3.870593994140625,1.3194963932037354,-0.3387426435947418,-1.1986571550369263
1782891274251616300,3.8806162109375,1.3342915773391724,-0.4664798378944397,-1.4794448614120483
1782891274261638100,3.89063818359375,1.4121310710906982,-0.6457896828651428,-1.6762276887893677
1782891274271660000,3.900659912109375,1.4952315092086792,-0.8468681573867798,-1.8293993473052979
1782891274281682200,3.91068212890625,1.5300832986831665,-1.03214693069458,-1.9475265741348267
1782891274291704000,3.9207041015625,1.493224024772644,-1.157426357269287,-2.0184192657470703
1782891274301726200,3.930726318359375,1.3985308408737183,-1.1915682554244995,-2.0241501331329346
1782891274311748400,3.940748291015625,1.2556884288787842,-1.0945041179656982,-1.9200650453567505
1782891274321770200,3.950770263671875,1.061598300933838,-0.8655532002449036,-1.6774876117706299
1782891274331792400,3.96079248046875,0.8421030044555664,-0.5060008764266968,-1.2725974321365356
1782891274341814300,3.970814208984375,0.6107653379440308,-0.12194082140922546,-0.7341325879096985
1782891274351833300,3.980833251953125,0.3572191298007965,0.18238046765327454,-0.11008815467357635
1782891274361855200,3.990855224609375,0.14160479605197906,0.25547492504119873,0.5096608400344849
1782891274371877000,4.000877197265625,0.017833326011896133,0.047690290957689285,1.020132064819336
1782891274381899300,4.010899169921875,0.017841847613453865,-0.370034784078598,1.3718270063400269
1782891274391921400,4.02092138671875,0.0656365305185318,-0.8376573920249939,1.6021345853805542
1782891274401943300,4.030943359375,0.16198889911174774,-1.3452918529510498,1.6704076528549194
1782891274411965400,4.04096533203125,0.3051993250846863,-1.8716429471969604,1.4843440055847168
1782891274421987300,4.0509873046875,0.5675166845321655,-2.229917049407959,1.1525697708129883
1782891274432009200,4.06100927734375,0.8549668192863464,-2.3755412101745605,0.7821464538574219
1782891274442031400,4.07103125,1.0469399690628052,-2.344822406768799,0.39246419072151184
1782891274452054300,4.08105419921875,1.192175269126892,-2.140294313430786,0.0463576465845108
1782891274462075100,4.0910751953125,1.3441120386123657,-1.8828740119934082,-0.23762772977352142
1782891274472098300,4.101098388671875,1.4691059589385986,-1.548455834388733,-0.45117196440696716
1782891274482119400,4.111119384765625,1.5377249717712402,-1.2162928581237793,-0.6283608675003052
1782891274492142000,4.12114208984375,1.5037379264831543,-0.9258711338043213,-0.6936892867088318
1782891274502164500,4.13116455078125,1.287544846534729,-0.6827146410942078,-0.5890379548072815
1782891274512186400,4.141186279296875,0.9231861233711243,-0.55185467004776,-0.33965903520584106
1782891274522208300,4.151208251953125,0.565613865852356,-0.5514764785766602,-0.041738659143447876
1782891274532230400,4.16123046875,0.33117926120758057,-0.6397866010665894,0.2017458975315094
1782891274542252300,4.171252197265625,0.24004189670085907,-0.8352533578872681,0.36988750100135803
1782891274552274200,4.181274169921875,0.19560092687606812,-1.1039878129959106,0.4253332018852234
1782891274562296000,4.191296142578125,0.045411691069602966,-1.4148343801498413,0.28154778480529785
1782891274572318200,4.201318115234375,-0.15037725865840912,-1.5664905309677124,-0.08283469825983047
1782891274582340400,4.21134033203125,-0.25939667224884033,-1.4192043542861938,-0.5706635117530823
1782891274592362200,4.2213623046875,-0.2132512927055359,-0.9930639863014221,-1.056640863418579
1782891274602384400,4.23138427734375,-0.1608051210641861,-0.3490498661994934,-1.4683032035827637
1782891274612406300,4.24140625,-0.351168692111969,0.5519118905067444,-1.6220544576644897
1782891274622428200,4.25142822265625,-0.5723194479942322,1.4132919311523438,-1.5788414478302002
1782891274632450300,4.2614501953125,-0.8796719312667847,2.0156774520874023,-1.4075595140457153
1782891274642472200,4.27147216796875,-1.1653473377227783,2.3484387397766113,-1.1518739461898804
1782891274652494000,4.281494140625,-1.3075388669967651,2.4482154846191406,-0.9116772413253784
1782891274662516500,4.2915166015625,-1.2917132377624512,2.3491456508636475,-0.6745949387550354
1782891274672538400,4.301538330078125,-1.1829530000686646,2.088762044906616,-0.4255409240722656
1782891274682560300,4.311560302734375,-1.0231117010116577,1.7041999101638794,-0.17147108912467957
1782891274692582400,4.32158251953125,-0.8950508832931519,1.2479887008666992,0.04796246439218521
1782891274702604300,4.331604248046875,-0.8323712348937988,0.8138601779937744,0.1885499358177185
1782891274712626200,4.341626220703125,-0.8094038963317871,0.5065202116966248,0.2381896674633026
1782891274722648300,4.3516484375,-0.8068733811378479,0.34198904037475586,0.2187243551015854
1782891274732670200,4.361670166015625,-0.8064128756523132,0.3130127787590027,0.16180726885795593
1782891274742692400,4.3716923828125,-0.7948140501976013,0.4006800353527069,0.08025382459163666
1782891274752714200,4.38171435546875,-0.7815133929252625,0.5901639461517334,-0.018704978749155998
1782891274762736400,4.391736328125,-0.7663640379905701,0.8259799480438232,-0.0981215089559555
1782891274772758300,4.40175830078125,-0.7375581860542297,1.0458555221557617,-0.14857348799705505
1782891274782780200,4.4117802734375,-0.696151077747345,1.2180159091949463,-0.15965969860553741
1782891274792802300,4.42180224609375,-0.6494432687759399,1.3455400466918945,-0.1262141317129135
1782891274802824200,4.43182421875,-0.5828783512115479,1.422401785850525,-0.037334855645895004
1782891274812846000,4.44184619140625,-0.521372377872467,1.43166983127594,0.10887108743190765
1782891274822868200,4.4518681640625,-0.5299200415611267,1.3658276796340942,0.31197041273117065
1782891274832890400,4.461890380859375,-0.5882787108421326,1.24711275100708,0.5338348746299744
1782891274842912300,4.471912353515625,-0.6481513381004333,1.0984910726547241,0.7603974938392639
1782891274852934400,4.481934326171875,-0.6761156320571899,0.9596647620201111,0.9665165543556213
1782891274862956300,4.491956298828125,-0.6666882634162903,0.8490282893180847,1.1470381021499634
1782891274872978200,4.501978271484375,-0.6421219706535339,0.7461921572685242,1.271313190460205
1782891274883000300,4.512000244140625,-0.6034771203994751,0.6578788161277771,1.3173776865005493
1782891274893022200,4.522022216796875,-0.5599479675292969,0.5869181156158447,1.296142339706421
1782891274903044000,4.532044189453125,-0.5066506862640381,0.5190908312797546,1.2392194271087646
1782891274913066500,4.54206640625,-0.4586522579193115,0.4398474097251892,1.1567645072937012
1782891274923088400,4.55208837890625,-0.43339964747428894,0.38094761967658997,1.0765535831451416
1782891274933110300,4.5621103515625,-0.44001147150993347,0.3426971733570099,1.0026377439498901
1782891274943132200,4.572132080078125,-0.46637171506881714,0.34616619348526,0.9291662573814392
1782891274953154300,4.582154296875,-0.5006753206253052,0.4034438729286194,0.8723591566085815
1782891274963176200,4.59217626953125,-0.5093127489089966,0.45125746726989746,0.8422806262969971
1782891274973198000,4.602197998046875,-0.509649932384491,0.4437289834022522,0.846165657043457
1782891274983220200,4.61222021484375,-0.5174444913864136,0.41914427280426025,0.9089968204498291
1782891274993242400,4.622242431640625,-0.5466724038124084,0.4361501634120941,1.001649260520935
1782891275003264300,4.63226416015625,-0.5785120725631714,0.4924347400665283,1.0733973979949951
1782891275013286400,4.642286376953125,-0.5933541655540466,0.49824920296669006,1.0716346502304077
1782891275023308300,4.652308349609375,-0.55372554063797,0.3618239760398865,0.9602277278900146
1782891275033330200,4.662330078125,-0.48517096042633057,0.1130426675081253,0.7387518286705017
1782891275043352300,4.672352294921875,-0.39792072772979736,-0.11013688892126083,0.44715461134910583
1782891275053374200,4.682374267578125,-0.28698277473449707,-0.22250418365001678,0.14523735642433167
1782891275063396000,4.69239599609375,-0.17883045971393585,-0.27581000328063965,-0.17586050927639008
1782891275073418500,4.70241845703125,-0.08983294665813446,-0.3412468135356903,-0.5424307584762573
1782891275083440400,4.7124404296875,-0.04782451316714287,-0.419014573097229,-0.90909343957901
1782891275093462300,4.722462158203125,-0.07644230872392654,-0.4413904547691345,-1.2326043844223022
1782891275103484200,4.732484130859375,-0.13322995603084564,-0.39613643288612366,-1.4746540784835815
1782891275113506300,4.74250634765625,-0.20523731410503387,-0.25149402022361755,-1.6433695554733276
1782891275123528200,4.752528076171875,-0.2644774615764618,-0.05510453134775162,-1.748694896697998
1782891275133550000,4.762550048828125,-0.24572373926639557,0.16836610436439514,-1.779376745223999
1782891275143572200,4.772572265625,-0.15297356247901917,0.4112631678581238,-1.685177206993103
1782891275153594400,4.782594482421875,-0.001969673903658986,0.5801233053207397,-1.4813519716262817
1782891275163616300,4.7926162109375,0.17348843812942505,0.6012959480285645,-1.224974513053894
1782891275173638400,4.802638427734375,0.3309371769428253,0.45265161991119385,-0.9797213077545166
1782891275183660300,4.812660400390625,0.48035675287246704,0.1963905543088913,-0.7885944843292236
1782891275193682200,4.82268212890625,0.6198411583900452,-0.09206308424472809,-0.6743406057357788
1782891275203704300,4.832704345703125,0.7356162071228027,-0.34096717834472656,-0.5870355367660522
1782891275213726200,4.842726318359375,0.8160412907600403,-0.5151440501213074,-0.5192322731018066
1782891275223748000,4.852748046875,0.8570928573608398,-0.5607179403305054,-0.4447987675666809
1782891275233770500,4.8627705078125,0.8485632538795471,-0.503596842288971,-0.4027160406112671
1782891275243792400,4.87279248046875,0.8211194276809692,-0.40813928842544556,-0.39154061675071716
1782891275253814300,4.882814208984375,0.7531536817550659,-0.21793605387210846,-0.3615691363811493
1782891275263836400,4.89283642578125,0.6432090401649475,0.07104488462209702,-0.3033939599990845
1782891275273858300,4.9028583984375,0.5212863683700562,0.3833061158657074,-0.21195806562900543
1782891275283880200,4.912880126953125,0.4041959345340729,0.6168525815010071,-0.10030583292245865
1782891275293902000,4.922902099609375,0.30109432339668274,0.7228381037712097,0.03581099584698677
1782891275303924200,4.93292431640625,0.21114499866962433,0.7248679399490356,0.20511506497859955
1782891275313946400,4.9429462890625,0.18230003118515015,0.6388939619064331,0.39999881386756897
1782891275323968300,4.95296826171875,0.20320984721183777,0.4903563857078552,0.5999311208724976
1782891275333990400,4.962990478515625,0.21069997549057007,0.32900986075401306,0.7792693972587585
1782891275344012500,4.973012451171875,0.1986856609582901,0.1854870319366455,0.901311993598938
1782891275354034400,4.983034423828125,0.1603875458240509,0.06504211574792862,0.93292236328125
1782891275364056300,4.993056396484375,0.12115518748760223,-0.03307672590017319,0.8823215365409851
1782891275374078500,5.003078369140625,0.09104175865650177,-0.10703563690185547,0.7524393796920776
1782891275384100400,5.013100341796875,0.07480952888727188,-0.1646110564470291,0.5490737557411194
1782891275394122200,5.023122314453125,0.0579565092921257,-0.19681400060653687,0.3106795847415924
1782891275404144400,5.033144287109375,0.008252603933215141,-0.16565075516700745,0.09270942956209183
1782891275414166500,5.04316650390625,-0.07668253034353256,-0.09511879086494446,-0.07321508973836899
1782891275424188400,5.0531884765625,-0.15622316300868988,0.0157129168510437,-0.1510305255651474
1782891275434210300,5.063210205078125,-0.20878490805625916,0.08592768758535385,-0.15350674092769623
1782891275444232400,5.073232421875,-0.25471192598342896,0.11904036998748779,-0.11011212319135666
1782891275454254300,5.08325439453125,-0.3242052495479584,0.12017594277858734,-0.028979454189538956
1782891275464276200,5.093276123046875,-0.41535353660583496,0.09111899137496948,0.06656358391046524
1782891275474298400,5.10329833984375,-0.4985243082046509,0.07623778283596039,0.15453098714351654
1782891275484320500,5.113320556640625,-0.5307557582855225,0.04776592552661896,0.17806586623191833
1782891275494342400,5.12334228515625,-0.4769122302532196,-0.03136351704597473,0.12373392283916473
1782891275504364500,5.133364501953125,-0.3810504078865051,-0.14869600534439087,-0.003832821501418948
1782891275514386400,5.143386474609375,-0.2720072865486145,-0.2661113142967224,-0.13538791239261627
1782891275524408300,5.153408203125,-0.27625343203544617,-0.36097443103790283,-0.22805127501487732
1782891275534430500,5.163430419921875,-0.3690797686576843,-0.4260548949241638,-0.2882719933986664
1782891275544452400,5.173452392578125,-0.4144115746021271,-0.4490792751312256,-0.3294551372528076
1782891275554474200,5.18347412109375,-0.38743773102760315,-0.38141366839408875,-0.42826318740844727
1782891275564496400,5.193496337890625,-0.33832797408103943,-0.20077171921730042,-0.6387780904769897
1782891275574518500,5.2035185546875,-0.3741730749607086,0.090091273188591,-0.8928383588790894
1782891275584540400,5.21354052734375,-0.6310836672782898,0.5945786833763123,-1.0678303241729736
1782891275594562300,5.223562255859375,-0.9496262669563293,1.252632975578308,-1.1546363830566406
1782891275604584400,5.23358447265625,-1.1963989734649658,1.8949471712112427,-1.1543389558792114
1782891275614606300,5.2436064453125,-1.3146319389343262,2.3964412212371826,-1.0797144174575806
1782891275624628200,5.253628173828125,-1.288205862045288,2.6551501750946045,-0.9291635751724243
1782891275634650400,5.263650390625,-1.143477201461792,2.651416540145874,-0.6774032711982727
1782891275644672500,5.273672607421875,-0.9463915824890137,2.4021248817443848,-0.32702580094337463
1782891275654694400,5.2836943359375,-0.7401478290557861,1.9663119316101074,0.0720001608133316
1782891275664716500,5.293716552734375,-0.5477914810180664,1.4245365858078003,0.4404064118862152
1782891275674738400,5.303738525390625,-0.38760390877723694,0.889289915561676,0.7343802452087402
1782891275684760300,5.31376025390625,-0.2576232850551605,0.436163991689682,0.9271451830863953
1782891275694782500,5.323782470703125,-0.18761757016181946,0.14290069043636322,1.0129133462905884
1782891275704804400,5.333804443359375,-0.17655958235263824,0.10343664139509201,0.9936102032661438
1782891275714826200,5.343826171875,-0.22275690734386444,0.2905314266681671,0.8978674411773682
1782891275724848400,5.353848388671875,-0.3200099468231201,0.6821106672286987,0.739622175693512
1782891275734870500,5.36387060546875,-0.43207257986068726,1.1444077491760254,0.500460147857666
1782891275744892400,5.373892333984375,-0.5102661848068237,1.573094367980957,0.24973979592323303
1782891275754914300,5.383914306640625,-0.531236469745636,1.9225850105285645,0.11303174495697021
1782891275764936400,5.3939365234375,-0.500457227230072,2.203308582305908,0.11559423804283142
1782891275774958300,5.403958251953125,-0.40895769000053406,2.3515279293060303,0.22881001234054565
1782891275784980200,5.413980224609375,-0.28176429867744446,2.3559138774871826,0.42617368698120117
1782891275795002400,5.42400244140625,-0.15873372554779053,2.276340961456299,0.6650006175041199
1782891275805024500,5.4340244140625,-0.0531281977891922,2.1542766094207764,0.8844118118286133
1782891275815046400,5.44404638671875,-0.00446958327665925,2.030533790588379,1.0537587404251099
1782891275825068500,5.454068603515625,-0.014637266285717487,1.929790735244751,1.195264220237732
1782891275835090400,5.46409033203125,-0.08710294216871262,1.8045177459716797,1.3186378479003906
1782891275845112300,5.4741123046875,-0.21428459882736206,1.6208741664886475,1.4233163595199585
1782891275855134500,5.484134521484375,-0.36753299832344055,1.4118812084197998,1.505259394645691
1782891275865156400,5.49415625,-0.5062554478645325,1.2106751203536987,1.5343533754348755
1782891275875178200,5.50417822265625,-0.6051716804504395,1.0252439975738525,1.5081944465637207
1782891275885200400,5.514200439453125,-0.6544438600540161,0.8470450043678284,1.4460972547531128
1782891275895222500,5.524222412109375,-0.6432482004165649,0.6283419728279114,1.3638389110565186
1782891275905244400,5.534244384765625,-0.5813978910446167,0.3685940206050873,1.2350409030914307
1782891275915266300,5.544266357421875,-0.477255254983902,0.027087809517979622,1.1358102560043335
1782891275925288400,5.554288330078125,-0.33336305618286133,-0.37753742933273315,1.0874525308609009
1782891275935310300,5.564310302734375,-0.17173686623573303,-0.762265682220459,1.1201497316360474
1782891275945332200,5.574332275390625,-0.043407659977674484,-1.0630340576171875,1.1630918979644775
1782891275955354400,5.584354248046875,0.03144900128245354,-1.2574743032455444,1.1408047676086426
1782891275965376300,5.594376220703125,0.07314691692590714,-1.422830581665039,1.0184918642044067
1782891275975398400,5.6043984375,0.14380882680416107,-1.5950971841812134,0.7717923521995544
1782891275985420500,5.614420654296875,0.27071139216423035,-1.840679407119751,0.3953441381454468
1782891275995442400,5.6244423828125,0.45147424936294556,-2.2099761962890625,-0.08597536385059357
1782891276005464300,5.63446435546875,0.6620829105377197,-2.66317081451416,-0.6276061534881592
1782891276015486500,5.644486572265625,0.8848317861557007,-3.160071849822998,-1.220009207725525
1782891276025508400,5.65450830078125,1.0940332412719727,-3.6074366569519043,-1.8594406843185425
1782891276035530200,5.6645302734375,1.3341238498687744,-4.011070728302002,-2.5267996788024902
1782891276045552400,5.674552490234375,1.5901747941970825,-4.468894004821777,-3.1238441467285156
1782891276055574500,5.684574462890625,1.897004246711731,-4.921206474304199,-3.510310649871826
1782891276065596400,5.694596435546875,2.3163061141967773,-5.236433982849121,-3.5641486644744873
1782891276075618600,5.70461865234375,2.81645131111145,-5.33730936050415,-3.284719944000244
1782891276085640400,5.714640380859375,3.1556074619293213,-5.082695960998535,-2.7775816917419434
1782891276095662300,5.724662353515625,3.3242135047912598,-4.447850704193115,-2.3450582027435303
1782891276105684200,5.734684326171875,3.29506516456604,-3.629960775375366,-2.00516676902771
1782891276115706400,5.744706298828125,2.9931540489196777,-2.7961905002593994,-1.6458429098129272
1782891276125728300,5.754728271484375,2.6265926361083984,-1.9831894636154175,-1.3066999912261963
1782891276135750400,5.76475048828125,2.3457140922546387,-1.3790085315704346,-1.1648128032684326
1782891276145772500,5.7747724609375,2.156453847885132,-0.9671085476875305,-1.2534849643707275
1782891276155794400,5.78479443359375,2.073397159576416,-0.6598178744316101,-1.5042731761932373
1782891276165816300,5.79481640625,2.0674333572387695,-0.4394218325614929,-1.7410061359405518
1782891276175838500,5.80483837890625,2.0784547328948975,-0.28282424807548523,-1.8700014352798462
1782891276185860400,5.8148603515625,2.086677312850952,-0.25532445311546326,-1.8149948120117188
1782891276195882200,5.82488232421875,2.0541834831237793,-0.3133019804954529,-1.6077401638031006
1782891276205904400,5.834904296875,1.9525892734527588,-0.3809686601161957,-1.339457631111145
1782891276215926500,5.844926513671875,1.7870367765426636,-0.4693184792995453,-1.0204908847808838
1782891276225948400,5.854948486328125,1.5656476020812988,-0.5225843787193298,-0.6901821494102478
1782891276235970600,5.864970458984375,1.3334990739822388,-0.5648822784423828,-0.3578619956970215
1782891276245992400,5.874992431640625,1.1155073642730713,-0.5685140490531921,-0.0002490055630914867
1782891276256014300,5.885014404296875,0.8575075268745422,-0.549470067024231,0.32616931200027466
1782891276266036500,5.895036376953125,0.5550613403320312,-0.5245692133903503,0.5771732926368713
1782891276276058400,5.905058349609375,0.22575323283672333,-0.4927718937397003,0.7227494120597839
1782891276286080300,5.915080322265625,-0.12178502231836319,-0.4408447742462158,0.7492849230766296
1782891276296103400,5.925103515625,-0.4513072669506073,-0.3411006033420563,0.6880199313163757
1782891276306124500,5.93512451171875,-0.7522069215774536,-0.19549013674259186,0.5837108492851257
1782891276316146400,5.945146484375,-0.9996539950370789,-0.011146128177642822,0.4694391191005707
1782891276326168300,5.955168212890625,-1.1826704740524292,0.1754349321126938,0.39027532935142517
1782891276336192000,5.96519189453125,-1.2845869064331055,0.3335537314414978,0.343740850687027
1782891276346214000,5.9752138671875,-1.3149386644363403,0.45639923214912415,0.33103278279304504
1782891276356236000,5.985236083984375,-1.2860835790634155,0.5303104519844055,0.31426578760147095
1782891276366258000,5.9952578125,-1.1946461200714111,0.5354194641113281,0.28518831729888916
1782891276376279800,6.00527978515625,-1.0568089485168457,0.4519171416759491,0.21463772654533386
1782891276386302000,6.015302001953125,-0.8906190991401672,0.2899974584579468,0.09331716597080231
1782891276396323800,6.02532373046875,-0.709519624710083,0.09733614325523376,-0.020801153033971786
1782891276406345700,6.035345703125,-0.5528644919395447,-0.1175553947687149,-0.12354883551597595
1782891276416368000,6.0453681640625,-0.42173391580581665,-0.28092193603515625,-0.22109510004520416
1782891276426390000,6.05539013671875,-0.3220224976539612,-0.36470580101013184,-0.3086366653442383
1782891276436412000,6.065411865234375,-0.26293522119522095,-0.45657873153686523,-0.3771803081035614
1782891276446433800,6.075433837890625,-0.21591684222221375,-0.6293571591377258,-0.4200151264667511
1782891276456456000,6.0854560546875,-0.11718947440385818,-0.8549985289573669,-0.4337106943130493
1782891276466477800,6.095477783203125,0.03266606852412224,-1.1234571933746338,-0.4008382260799408
1782891276476499700,6.105499755859375,0.2202780395746231,-1.472603440284729,-0.3646053969860077
1782891276486521900,6.11552197265625,0.41759032011032104,-1.8605157136917114,-0.34664371609687805
1782891276496544000,6.1255439453125,0.6225104331970215,-2.138986825942993,-0.3548550307750702
1782891276506566000,6.13556591796875,0.8365172743797302,-2.1394238471984863,-0.42874443531036377
1782891276516588000,6.145588134765625,0.9212145805358887,-1.9155014753341675,-0.5816529989242554
1782891276526610000,6.15560986328125,0.729913055896759,-1.6269783973693848,-0.7781194448471069
1782891276536631800,6.1656318359375,0.4501751661300659,-1.084232211112976,-0.817037045955658
1782891276546654000,6.175654052734375,0.2159711718559265,-0.4835783839225769,-0.7364657521247864
1782891276556675800,6.18567578125,-0.010791128501296043,0.046360041946172714,-0.5722057223320007
1782891276566697700,6.19569775390625,-0.1967727094888687,0.45412009954452515,-0.3011830151081085
1782891276576720000,6.205719970703125,-0.36989521980285645,0.711978018283844,0.07097883522510529
1782891276586742000,6.215741943359375,-0.43782660365104675,0.8257628679275513,0.4459969103336334
1782891276596764000,6.225763916015625,-0.4103046953678131,0.7683888077735901,0.7921308875083923
1782891276606786000,6.2357861328125,-0.33620065450668335,0.6419517993927002,1.0634641647338867
1782891276616808000,6.245807861328125,-0.26916223764419556,0.5167757272720337,1.240310788154602
1782891276626829800,6.255829833984375,-0.24554824829101562,0.45267561078071594,1.3018218278884888
1782891276636851700,6.265851806640625,-0.2566525638103485,0.42249107360839844,1.2254256010055542
1782891276646873900,6.275873779296875,-0.28880465030670166,0.4577012360095978,1.0657531023025513
1782891276656896000,6.28589599609375,-0.318151593208313,0.557991087436676,0.8535169959068298
1782891276666918000,6.29591796875,-0.33548665046691895,0.7183661460876465,0.6280815005302429
1782891276676940000,6.30593994140625,-0.3371519446372986,0.8826586604118347,0.412589430809021
1782891276686962000,6.3159619140625,-0.3326796889305115,1.0182214975357056,0.2597021460533142
1782891276696983800,6.32598388671875,-0.3250688910484314,1.0885343551635742,0.1814957559108734
1782891276707006000,6.336005859375,-0.3267078101634979,1.0719246864318848,0.16536127030849457
1782891276717027800,6.34602783203125,-0.3074358403682709,0.9715432524681091,0.19821108877658844
1782891276727049700,6.3560498046875,-0.2613125741481781,0.8290936946868896,0.29234078526496887
1782891276737071900,6.36607177734375,-0.222921222448349,0.6823961138725281,0.44307568669319153
1782891276747094000,6.376093994140625,-0.21470564603805542,0.5110475420951843,0.63129061460495
1782891276757116000,6.386115966796875,-0.23392701148986816,0.32619115710258484,0.8391620516777039
1782891276767138000,6.396137939453125,-0.2635514736175537,0.14997698366641998,1.0338993072509766
1782891276777160000,6.406159912109375,-0.28041940927505493,0.04224972054362297,1.1852225065231323
1782891276787181800,6.416181884765625,-0.30085811018943787,-0.01197836548089981,1.2862085103988647
1782891276797203700,6.42620361328125,-0.33559584617614746,-0.058341868221759796,1.308307409286499
1782891276807225900,6.436225830078125,-0.35842740535736084,-0.1108333095908165,1.2135018110275269
1782891276817247700,6.446247802734375,-0.3697114586830139,-0.18988151848316193,1.070473551750183
1782891276827270000,6.456269775390625,-0.37393444776535034,-0.2663872241973877,0.8764870762825012
1782891276837292000,6.4662919921875,-0.35851767659187317,-0.3425823748111725,0.6697996854782104
1782891276847314000,6.47631396484375,-0.3219170570373535,-0.4412413239479065,0.46834349632263184
1782891276857335800,6.486335693359375,-0.27945375442504883,-0.5258563160896301,0.2904459536075592
1782891276867358000,6.49635791015625,-0.24872858822345734,-0.5696107149124146,0.14614789187908173
1782891276877379800,6.5063798828125,-0.23857475817203522,-0.594142735004425,0.028691299259662628
1782891276887401700,6.516401611328125,-0.2585820257663727,-0.623295247554779,-0.045097172260284424
1782891276897424000,6.526423828125,-0.2989976108074188,-0.6185367107391357,-0.0852603018283844
1782891276907446000,6.536446044921875,-0.36905235052108765,-0.6025322079658508,-0.08968035131692886
1782891276917468000,6.546468017578125,-0.4705107808113098,-0.6345993280410767,-0.07636187970638275
1782891276927490000,6.556489990234375,-0.5571759343147278,-0.7135636210441589,-0.06705120205879211
1782891276937512000,6.566511962890625,-0.5398664474487305,-0.7939796447753906,-0.114877849817276
1782891276947533800,6.576533935546875,-0.43272799253463745,-0.8806213736534119,-0.29575255513191223
1782891276957556000,6.586555908203125,-0.2750161290168762,-0.988427996635437,-0.6262630820274353
1782891276967577900,6.596577880859375,-0.0849660262465477,-0.9798762798309326,-1.075936198234558
1782891276977599700,6.606599853515625,0.11542326211929321,-0.8428880572319031,-1.6045739650726318
1782891276987622000,6.616621826171875,0.34085825085639954,-0.6130655407905579,-2.166029691696167
1782891276997644000,6.62664404296875,0.5152284502983093,-0.3304535448551178,-2.6777219772338867
1782891277007666000,6.636666015625,0.5537191033363342,0.031498536467552185,-3.0128374099731445
1782891277017687800,6.646687744140625,0.5162135362625122,0.4357096552848816,-3.1039299964904785
1782891277027710000,6.6567099609375,0.4620230197906494,0.8650397062301636,-2.995712995529175
1782891277037731800,6.66673193359375,0.3647955358028412,1.313603401184082,-2.6904706954956055
1782891277047753700,6.676753662109375,0.24519431591033936,1.6338688135147095,-2.2374587059020996
1782891277057775900,6.68677587890625,0.1614927500486374,1.7226084470748901,-1.6607000827789307
1782891277067798000,6.696798095703125,0.1550726741552353,1.6043601036071777,-1.0359044075012207
1782891277077820000,6.70681982421875,0.19479398429393768,1.3219918012619019,-0.449314147233963
1782891277087842000,6.716842041015625,0.2569681406021118,0.9434490203857422,0.08261232078075409
1782891277097864000,6.726864013671875,0.3024519979953766,0.6082289814949036,0.539532482624054
1782891277107885800,6.7368857421875,0.3255749046802521,0.33142027258872986,0.861121416091919
1782891277117908000,6.746907958984375,0.35210344195365906,0.15270325541496277,1.0522788763046265
1782891277127929900,6.756929931640625,0.3688957393169403,0.07535786926746368,1.1459696292877197
1782891277137951700,6.76695166015625,0.36655962467193604,0.07458528876304626,1.1188701391220093
1782891277147974000,6.776973876953125,0.3614569902420044,0.13637354969978333,1.0005009174346924
1782891277157996000,6.78699609375,0.35815680027008057,0.2830551266670227,0.8440167307853699
1782891277168018000,6.797017822265625,0.32171064615249634,0.49532318115234375,0.7014002203941345
1782891277178039800,6.807039794921875,0.23611532151699066,0.6660813689231873,0.6186243295669556
1782891277188062000,6.81706201171875,0.0915813148021698,0.7753929495811462,0.6226566433906555
1782891277198083800,6.827083740234375,-0.08198168873786926,0.7981458902359009,0.7062529921531677
1782891277208105700,6.837105712890625,-0.2643589377403259,0.7431274056434631,0.8449743986129761
1782891277218128000,6.8471279296875,-0.44360512495040894,0.6839972138404846,1.00204336643219
1782891277228150000,6.85714990234375,-0.6362581849098206,0.6542015075683594,1.160451889038086
1782891277238172000,6.867171875,-0.8452223539352417,0.6514302492141724,1.27259361743927
1782891277248194000,6.877194091796875,-1.0450843572616577,0.6861038208007812,1.3322948217391968
1782891277258216000,6.8872158203125,-1.2038278579711914,0.7757796049118042,1.3514653444290161
1782891277268237800,6.89723779296875,-1.3467490673065186,0.8969995379447937,1.3559706211090088
1782891277278260000,6.907260009765625,-1.4708929061889648,1.0543824434280396,1.3693814277648926
1782891277288281900,6.91728173828125,-1.5859675407409668,1.2044236660003662,1.3758792877197266
1782891277298303700,6.9273037109375,-1.6757413148880005,1.351277232170105,1.357332468032837
1782891277308326000,6.937325927734375,-1.7727336883544922,1.537381649017334,1.344158411026001
1782891277318348000,6.94734814453125,-1.8608251810073853,1.7628355026245117,1.3474234342575073
1782891277328370200,6.9573701171875,-1.9334198236465454,2.0060110092163086,1.3802838325500488
1782891277338392000,6.96739208984375,-1.9770610332489014,2.27474045753479,1.42717444896698
1782891277348414000,6.9774140625,-1.986879587173462,2.5296308994293213,1.43934166431427
1782891277358436000,6.98743603515625,-1.9690289497375488,2.730889320373535,1.4376739263534546
1782891277368458000,6.9974580078125,-1.9479204416275024,2.9442853927612305,1.435320258140564
1782891277378479900,7.00747998046875,-1.9107229709625244,3.179086446762085,1.3907709121704102
1782891277388502000,7.017501953125,-1.8591524362564087,3.363983392715454,1.240240216255188
1782891277398524200,7.027524169921875,-1.811763882637024,3.484391689300537,1.0222247838974
1782891277408546000,7.037546142578125,-1.822649598121643,3.567681074142456,0.79417484998703
1782891277418568200,7.047568115234375,-1.8625730276107788,3.673466444015503,0.6245235204696655
1782891277428590000,7.057590087890625,-1.8220051527023315,3.7574009895324707,0.5794830918312073
1782891277438612000,7.067612060546875,-1.6722297668457031,3.8215088844299316,0.6576228737831116
1782891277448634000,7.077634033203125,-1.4683588743209839,3.870314836502075,0.8084188103675842
1782891277458656000,7.087656005859375,-1.3084558248519897,3.728548765182495,0.939042329788208
1782891277468678000,7.097677978515625,-1.2843538522720337,3.3208165168762207,1.0520538091659546
1782891277478700300,7.1077001953125,-1.327039361000061,2.8241848945617676,1.122693419456482
1782891277488722200,7.11772216796875,-1.3145182132720947,2.411637783050537,1.16172194480896
1782891277498744000,7.127744140625,-1.2145673036575317,2.190648317337036,1.1592457294464111
1782891277508766200,7.13776611328125,-1.107546091079712,2.142385482788086,1.1509524583816528
1782891277518788000,7.1477880859375,-1.0340583324432373,2.2209110260009766,1.1507385969161987
1782891277528810000,7.15781005859375,-0.9478285908699036,2.39715313911438,1.1746934652328491
1782891277538832000,7.167831787109375,-0.8255426287651062,2.566190481185913,1.209286093711853
1782891277548854000,7.17785400390625,-0.6869858503341675,2.6220972537994385,1.274594783782959
1782891277558876200,7.187876220703125,-0.5449522733688354,2.4701454639434814,1.3802268505096436
1782891277568898000,7.19789794921875,-0.42600908875465393,2.162055015563965,1.5023565292358398
1782891277578920200,7.207920166015625,-0.3259802460670471,1.766628623008728,1.5807546377182007
1782891277588942000,7.217942138671875,-0.239187553524971,1.3332141637802124,1.5598422288894653
1782891277598964000,7.2279638671875,-0.17133046686649323,0.9607678651809692,1.4298343658447266
1782891277608986000,7.237986083984375,-0.12071629613637924,0.6981465816497803,1.2020723819732666
1782891277619008000,7.248008056640625,-0.09614144265651703,0.5447453260421753,0.9129297733306885
1782891277629030000,7.25802978515625,-0.10593415796756744,0.493992418050766,0.6519719362258911
1782891277639052000,7.268052001953125,-0.12730681896209717,0.5284534692764282,0.4588432013988495
1782891277649074200,7.27807421875,-0.13320839405059814,0.587722659111023,0.3286615014076233
1782891277659096000,7.288095947265625,-0.09809407591819763,0.6795430779457092,0.24429762363433838
1782891277669118200,7.2981181640625,-0.016455139964818954,0.7618688344955444,0.2186892032623291
1782891277679140000,7.30814013671875,0.09662933647632599,0.7750565409660339,0.2582792341709137
1782891277689162000,7.318161865234375,0.21448487043380737,0.695161759853363,0.3625451624393463
1782891277699184000,7.32818408203125,0.2911277115345001,0.4977586567401886,0.5054131150245667
1782891277709206000,7.3382060546875,0.32846948504447937,0.3206230103969574,0.7199552059173584
1782891277719228000,7.348227783203125,0.3244265615940094,0.2186761498451233,0.9377669095993042
1782891277729250000,7.35825,0.3066001534461975,0.19696979224681854,1.1099985837936401
1782891277739272200,7.368272216796875,0.3132180869579315,0.2450457066297531,1.2113473415374756
1782891277749294000,7.378294189453125,0.3365798890590668,0.31770020723342896,1.2536910772323608
1782891277759316000,7.38831591796875,0.35486966371536255,0.4004185199737549,1.2948004007339478
1782891277769338000,7.398338134765625,0.34025558829307556,0.46375513076782227,1.37592613697052
1782891277779360000,7.408360107421875,0.29774194955825806,0.49333086609840393,1.537757158279419
1782891277789382000,7.4183818359375,0.2752576768398285,0.4763942360877991,1.714678406715393
1782891277799404000,7.428404052734375,0.274548202753067,0.4367128610610962,1.8204690217971802
1782891277809426200,7.43842626953125,0.2769136130809784,0.38451918959617615,1.82393217086792
1782891277819448000,7.448447998046875,0.2524692714214325,0.29832011461257935,1.718104600906372
1782891277829470200,7.45847021484375,0.18677973747253418,0.17831221222877502,1.5520873069763184
1782891277839492000,7.4684921875,0.09220422804355621,0.06186176836490631,1.3735789060592651
1782891277849514000,7.478513916015625,-0.04673821106553078,0.023192936554551125,1.2512532472610474
1782891277859536100,7.4885361328125,-0.19909632205963135,0.01576218567788601,1.1753339767456055
1782891277869558000,7.49855810546875,-0.34510865807533264,0.025669943541288376,1.1346040964126587
1782891277879580000,7.508579833984375,-0.4010070860385895,0.04881201311945915,1.057711124420166
1782891277889602000,7.51860205078125,-0.34254351258277893,-0.0006146575906313956,0.8775398135185242
1782891277899624200,7.528624267578125,-0.25800225138664246,-0.04584205523133278,0.5901394486427307
1782891277909646000,7.53864599609375,-0.20941101014614105,-0.13140515983104706,0.2365768551826477
1782891277919668000,7.54866796875,-0.21442627906799316,-0.31053921580314636,-0.1525903344154358
1782891277929690000,7.558690185546875,-0.2796473503112793,-0.5872976183891296,-0.5697404146194458
1782891277939712000,7.5687119140625,-0.320834755897522,-0.8691529631614685,-0.9419134855270386
1782891277949734000,7.57873388671875,-0.36785125732421875,-1.0398610830307007,-1.205273151397705
1782891277959756000,7.588756103515625,-0.3781113624572754,-0.9074153900146484,-1.207435131072998
1782891277969778200,7.598778076171875,-0.3540518283843994,-0.517270565032959,-0.965272068977356
1782891277979800000,7.608800048828125,-0.3187529444694519,0.031319573521614075,-0.624786376953125
1782891277989822200,7.618822265625,-0.2616017758846283,0.5281125903129578,-0.3078419864177704
1782891277999844000,7.628843994140625,-0.1981961727142334,0.7783988118171692,-0.13247787952423096
1782891278009866000,7.638865966796875,-0.14712873101234436,0.7792172431945801,-0.0862099826335907
1782891278019888000,7.64888818359375,-0.10259215533733368,0.6387794017791748,-0.1459827721118927
1782891278029910000,7.658909912109375,-0.06540084630250931,0.39181676506996155,-0.2540530562400818
1782891278039932000,7.668931884765625,-0.048959020525217056,0.13020913302898407,-0.372282475233078
1782891278049954000,7.6789541015625,-0.04715419560670853,-0.08226823806762695,-0.49776211380958557
1782891278059976200,7.68897607421875,-0.06733376532793045,-0.1968661993741989,-0.6280263662338257
1782891278069998000,7.698998046875,-0.09085933119058609,-0.20902565121650696,-0.726473331451416
1782891278080020000,7.70902001953125,-0.11058243364095688,-0.14833994209766388,-0.7816559076309204
1782891278090042000,7.7190419921875,-0.12413260340690613,-0.040586840361356735,-0.7838966846466064
1782891278100064000,7.72906396484375,-0.15092985332012177,0.04421326890587807,-0.7418006062507629
1782891278110086000,7.7390859375,-0.12002360820770264,0.07804659754037857,-0.636889636516571
1782891278120108000,7.74910791015625,-0.11077125370502472,0.027832962572574615,-0.5173674821853638
1782891278130130200,7.759130126953125,-0.08399610221385956,-0.02918531559407711,-0.3790980577468872
1782891278140152000,7.769152099609375,-0.04271071031689644,-0.06758277118206024,-0.23226919770240784
1782891278150174200,7.77917431640625,-0.03602644428610802,-0.07512430846691132,-0.1016206368803978
1782891278160196000,7.789196044921875,-0.030672691762447357,-0.03273637592792511,0.033843718469142914
1782891278170218000,7.799218017578125,-0.039870716631412506,0.041903506964445114,0.1607223004102707
1782891278180240100,7.809240234375,-0.05777035653591156,0.16573649644851685,0.29622820019721985
1782891278190262000,7.819261962890625,-0.08632290363311768,0.280524343252182,0.43551525473594666
1782891278200284000,7.829283935546875,-0.11943504959344864,0.33425042033195496,0.549920916557312
1782891278210306000,7.83930615234375,-0.14254756271839142,0.35262569785118103,0.6459534168243408
1782891278220328200,7.849328125,-0.12994122505187988,0.3876523971557617,0.7149077653884888
1782891278230350000,7.85935009765625,-0.06682536751031876,0.3791979253292084,0.7192284464836121
1782891278240372000,7.8693720703125,0.024520788341760635,0.3307017683982849,0.7118099331855774
1782891278250394000,7.87939404296875,0.08293083310127258,0.30563926696777344,0.751575231552124
1782891278260416000,7.889416015625,0.19385682046413422,0.2954961061477661,0.8206416368484497
1782891278270438000,7.89943798828125,0.32270294427871704,0.23609136044979095,0.8598284721374512
1782891278280460000,7.9094599609375,0.3977912962436676,0.23780004680156708,0.8978242874145508
1782891278290482000,7.91948193359375,0.4461825489997864,0.29299938678741455,0.909088671207428
1782891278300504000,7.929504150390625,0.47449061274528503,0.29249072074890137,0.8950908184051514
1782891278310526200,7.939526123046875,0.46484118700027466,0.2358948141336441,0.8807380199432373
1782891278320548000,7.949548095703125,0.4375152885913849,0.13712909817695618,0.8513321876525879
1782891278330570200,7.9595703125,0.4135516285896301,0.011153851635754108,0.7237989902496338
1782891278340592000,7.969592041015625,0.38467684388160706,-0.0704541951417923,0.49296921491622925
1782891278350614000,7.979614013671875,0.3321976661682129,-0.06939531862735748,0.1836497187614441
1782891278360636200,7.98963623046875,0.2917628884315491,0.05011776089668274,-0.1455974131822586
1782891278370658000,7.999657958984375,0.3319172263145447,0.23806795477867126,-0.42523306608200073
1782891278380680200,8.00968017578125,0.4409126937389374,0.3152618110179901,-0.5866629481315613
1782891278390702300,8.019702392578125,0.5423836708068848,0.13596315681934357,-0.5827974081039429
1782891278400724200,8.02972412109375,0.5560866594314575,-0.47267940640449524,-0.5349001884460449
1782891278410746000,8.03974609375,0.4165801703929901,-1.30022132396698,-0.6072158813476562
1782891278420768300,8.049768310546876,0.18310590088367462,-1.8442121744155884,-0.7928270697593689
1782891278430790100,8.0597900390625,-0.03182557225227356,-1.9464179277420044,-1.0296270847320557
1782891278440812000,8.06981201171875,-0.14396782219409943,-1.7021807432174683,-1.2374719381332397
1782891278450834000,8.079833984375,-0.1590263992547989,-1.1459001302719116,-1.3166660070419312
1782891278460856300,8.089856201171875,-0.1269901692867279,-0.40854141116142273,-1.2250308990478516
1782891278470878200,8.099878173828126,-0.05476710945367813,0.21451842784881592,-1.0113236904144287
1782891278480900000,8.109900146484375,0.005859753116965294,0.4828369617462158,-0.7346398830413818
1782891278490922200,8.119922119140625,0.01745515689253807,0.4016299843788147,-0.4840313792228699
1782891278500944100,8.129944091796874,-0.017951570451259613,0.1259794980287552,-0.3455161154270172
1782891278510966000,8.139966064453125,-0.04244439676403999,-0.253889799118042,-0.38155853748321533
1782891278520989200,8.1499892578125,-0.0782596543431282,-0.6299851536750793,-0.5296939611434937
1782891278531011000,8.160010986328125,-0.14048095047473907,-0.9192352890968323,-0.7448392510414124
1782891278541033000,8.170032958984375,-0.18197086453437805,-1.1214771270751953,-1.0321661233901978
1782891278551055000,8.18005517578125,-0.22127406299114227,-1.2122011184692383,-1.3490428924560547
1782891278561077000,8.190076904296875,-0.28480324149131775,-1.0797724723815918,-1.6016650199890137
1782891278571099100,8.20009912109375,-0.356810599565506,-0.7657373547554016,-1.7697557210922241
1782891278581121300,8.210121337890625,-0.41539373993873596,-0.30447253584861755,-1.796359658241272
1782891278591143200,8.22014306640625,-0.46232423186302185,0.12606072425842285,-1.6788601875305176
1782891278601165000,8.2301650390625,-0.47158482670783997,0.37836140394210815,-1.4364784955978394
1782891278611187200,8.240187255859375,-0.43116283416748047,0.46551042795181274,-1.1136356592178345
1782891278621209000,8.250208984375,-0.3733016848564148,0.4090977609157562,-0.7594584226608276
1782891278631231000,8.26023095703125,-0.2937008738517761,0.24462226033210754,-0.43156951665878296
1782891278641253000,8.270253173828126,-0.20438429713249207,0.06665626168251038,-0.16662973165512085
1782891278651275300,8.280275146484374,-0.13575942814350128,-0.07541432976722717,0.018099641427397728
1782891278661297200,8.290297119140625,-0.09015172719955444,-0.13761006295681,0.1580713987350464
1782891278671319300,8.3003193359375,-0.053467486053705215,-0.10622097551822662,0.2764446437358856
1782891278681341200,8.310341064453125,-0.003914846573024988,-0.028171183541417122,0.3647878170013428
1782891278691363000,8.320363037109376,0.05296334996819496,0.05592451989650726,0.41973069310188293
1782891278701387300,8.33038720703125,0.08418837934732437,0.13429096341133118,0.43813392519950867
1782891278711409200,8.3404091796875,0.11804701387882233,0.1821271926164627,0.46916189789772034
1782891278721431300,8.350431396484375,0.13456100225448608,0.1802493929862976,0.5253604650497437
1782891278731453200,8.360453125,0.14137284457683563,0.13463877141475677,0.5846224427223206
1782891278741475000,8.37047509765625,0.14006389677524567,0.07873982191085815,0.6357199549674988
1782891278751497000,8.3804970703125,0.14512071013450623,0.013796771876513958,0.6825817823410034
1782891278761519000,8.39051904296875,0.15264201164245605,-0.03798945993185043,0.7369992136955261
1782891278771541000,8.400541015625,0.16113989055156708,-0.08267011493444443,0.8009268045425415
1782891278781563100,8.410563232421875,0.15332376956939697,-0.1301414966583252,0.8632274270057678
1782891278791585300,8.420585205078124,0.11178645491600037,-0.19572636485099792,0.8994962573051453
1782891278801607200,8.430607177734375,0.03501098230481148,-0.27123576402664185,0.9068729281425476
1782891278811629000,8.440629150390626,-0.04969378560781479,-0.3618980348110199,0.8813992738723755
1782891278821651200,8.450651123046875,-0.09994124621152878,-0.4163399636745453,0.828168511390686
1782891278831673000,8.460673095703125,-0.12365775555372238,-0.36590448021888733,0.7626965641975403
1782891278841695000,8.470695068359374,-0.1461750566959381,-0.2611604928970337,0.6097528338432312
1782891278851717000,8.480717041015625,-0.15867114067077637,-0.1800278276205063,0.3527173101902008
1782891278861739300,8.4907392578125,-0.15957102179527283,-0.17913992702960968,-0.0013409015955403447
1782891278871761200,8.50076123046875,-0.16089381277561188,-0.2831480801105499,-0.4470358192920685
1782891278881783300,8.510783203125,-0.15349581837654114,-0.4037450850009918,-0.933509349822998
1782891278891805200,8.52080517578125,-0.11595190316438675,-0.4508785009384155,-1.2972910404205322
1782891278901827000,8.5308271484375,-0.053091179579496384,-0.3658197820186615,-1.3658708333969116
1782891278911849200,8.54084912109375,0.02231675758957863,-0.06281092017889023,-1.0505318641662598
1782891278921871000,8.55087109375,0.1258290410041809,0.3516368567943573,-0.47677239775657654
1782891278931893000,8.56089306640625,0.2641932964324951,0.645334005355835,0.07727401703596115
1782891278941915100,8.5709150390625,0.4050910472869873,0.6858614683151245,0.4156608581542969
1782891278951937300,8.580937255859375,0.5102605819702148,0.5723519325256348,0.5799552798271179
1782891278961959200,8.590959228515626,0.5551082491874695,0.37576162815093994,0.627696692943573
1782891278971981000,8.60098095703125,0.5407561659812927,0.11113717406988144,0.6326780915260315
1782891278982003200,8.611003173828125,0.4495706260204315,-0.12413553148508072,0.6456413269042969
1782891278992025000,8.621025146484374,0.27188292145729065,-0.20569537580013275,0.6255030035972595
1782891279002047000,8.631046875,0.043176498264074326,-0.15273602306842804,0.5116837620735168
1782891279012069000,8.641069091796876,-0.19910190999507904,-0.016450611874461174,0.3197857141494751
1782891279022091300,8.65109130859375,-0.4485386312007904,0.23261938989162445,0.09577446430921555
1782891279032113200,8.661113037109375,-0.6857847571372986,0.5816317200660706,-0.1347506195306778
1782891279042135300,8.67113525390625,-0.8630309104919434,0.8579815626144409,-0.3399141728878021
1782891279052157200,8.6811572265625,-0.9682555794715881,1.0022872686386108,-0.45247212052345276
1782891279062179000,8.691178955078126,-1.005698800086975,0.9850547909736633,-0.46887826919555664
1782891279072201200,8.701201171875,-0.9590221643447876,0.8168317079544067,-0.4021245241165161
1782891279082223000,8.71122314453125,-0.8524371385574341,0.5587698221206665,-0.27194204926490784
1782891279092245000,8.721244873046874,-0.7245798110961914,0.27265042066574097,-0.11803849041461945
1782891279102267100,8.73126708984375,-0.5776859521865845,0.03187137842178345,0.07371789962053299
1782891279112289300,8.741289306640626,-0.4262906014919281,-0.09520294517278671,0.24622681736946106
1782891279122311200,8.751311279296875,-0.2754051983356476,-0.12938861548900604,0.34454911947250366
1782891279132333000,8.7613330078125,-0.14986060559749603,-0.06709887832403183,0.4017881751060486
1782891279142355200,8.771355224609374,-0.0752502828836441,0.08778657764196396,0.4438306987285614
1782891279152377000,8.781377197265625,-0.03191186115145683,0.2802084982395172,0.44704246520996094
1782891279162399000,8.79139892578125,0.00039494677912443876,0.451066255569458,0.4089137315750122
1782891279172421000,8.801421142578125,0.01176105160266161,0.597583532333374,0.3501707911491394
1782891279182443300,8.811443359375,0.03368233144283295,0.6976144909858704,0.31506580114364624
1782891279192465200,8.821465087890624,0.07076498121023178,0.7409380078315735,0.3016522526741028
1782891279202487300,8.8314873046875,0.133017435669899,0.7607559561729431,0.2863803505897522
1782891279212509200,8.84150927734375,0.23531131446361542,0.7378564476966858,0.2595338225364685
1782891279222531000,8.851531005859375,0.35668063163757324,0.6422721743583679,0.2324657291173935
1782891279232553200,8.86155322265625,0.47780144214630127,0.5727125406265259,0.25449272990226746
1782891279242575000,8.8715751953125,0.6023391485214233,0.544161319732666,0.38095080852508545
1782891279252597000,8.881596923828125,0.7300955057144165,0.47956979274749756,0.6048523187637329
1782891279262619100,8.891619140625,0.8207007646560669,0.34108835458755493,0.826443612575531
1782891279272641300,8.901641357421875,0.8276957869529724,0.1977037638425827,0.9513919353485107
1782891279282663200,8.9116630859375,0.7675528526306152,0.024041419848799706,0.9509759545326233
1782891279292685000,8.92168505859375,0.6272319555282593,-0.11882945150136948,0.9032046794891357
1782891279302707200,8.931707275390625,0.452374666929245,-0.18868522346019745,0.8376046419143677
1782891279312729000,8.94172900390625,0.3301638066768646,-0.13400466740131378,0.727737545967102
1782891279322751000,8.9517509765625,0.29071757197380066,0.04339674115180969,0.5771264433860779
1782891279332772600,8.961772705078126,0.3016831576824188,0.1697711944580078,0.3404332101345062
1782891279342794500,8.97179443359375,0.3308034837245941,0.06704933941364288,0.013382650911808014
1782891279352816400,8.98181640625,0.32726040482521057,-0.3980344533920288,-0.38294923305511475
1782891279362838500,8.991838623046876,0.25556331872940063,-1.089154839515686,-0.7716919183731079
1782891279372860400,9.0018603515625,0.16056305170059204,-1.6262260675430298,-1.0218442678451538
1782891279382882300,9.01188232421875,0.0574829988181591,-1.764003038406372,-1.0798263549804688
1782891279392904400,9.021904541015624,-0.020187826827168465,-1.4789146184921265,-0.9960243701934814
1782891279402926300,9.03192626953125,-0.010456635616719723,-0.9073967933654785,-0.8598665595054626
1782891279412948500,9.041948486328126,0.10458659380674362,-0.22853490710258484,-0.7197075486183167
1782891279422970600,9.051970703125,0.2643949091434479,0.3143789768218994,-0.5828509330749512
1782891279432992500,9.061992431640626,0.36728453636169434,0.5679731369018555,-0.46429017186164856
1782891279443014400,9.072014404296874,0.39189401268959045,0.5662682056427002,-0.38084107637405396
1782891279453036500,9.08203662109375,0.3783569037914276,0.41369569301605225,-0.33286425471305847
1782891279463058400,9.092058349609376,0.3181779682636261,0.20920754969120026,-0.3172477185726166
1782891279473080300,9.102080322265625,0.21876509487628937,0.02641136758029461,-0.35833072662353516
1782891279483102200,9.112102294921876,0.09983658045530319,-0.08312684297561646,-0.4695134460926056
1782891279493124600,9.12212451171875,-0.03365569934248924,-0.07660555839538574,-0.6786749362945557
1782891279503146500,9.132146484375,-0.17066974937915802,0.011686749756336212,-0.985897958278656
1782891279513168400,9.14216845703125,-0.30163121223449707,0.12843947112560272,-1.305919885635376
1782891279523190500,9.1521904296875,-0.4048478901386261,0.25893434882164,-1.527901291847229
1782891279533212400,9.16221240234375,-0.4382420480251312,0.3787822127342224,-1.5779809951782227
1782891279543234300,9.172234375,-0.35874778032302856,0.42230063676834106,-1.4423561096191406
1782891279553256400,9.18225634765625,-0.21750089526176453,0.3937632739543915,-1.1381529569625854
1782891279563278300,9.1922783203125,-0.06728316843509674,0.29259032011032104,-0.7311745882034302
1782891279573300500,9.202300537109375,0.06708795577287674,0.1584485024213791,-0.2869766354560852
1782891279583322600,9.212322509765626,0.169964000582695,0.0460340715944767,0.10536131262779236
1782891279593344500,9.222344482421875,0.23908288776874542,-0.013454023748636246,0.37695154547691345
1782891279603366400,9.232366455078125,0.2743106484413147,-0.011289671994745731,0.5020215511322021
1782891279613388500,9.242388427734374,0.2784910202026367,0.018095646053552628,0.48779577016830444
1782891279623410400,9.252410400390625,0.25819000601768494,0.049853842705488205,0.3802940845489502
1782891279633432300,9.262432373046876,0.2293066829442978,0.07578770816326141,0.24778157472610474
1782891279643454500,9.272454345703125,0.19495271146297455,0.10706014186143875,0.12423193454742432
1782891279653476400,9.282476318359375,0.1917172372341156,0.14939774572849274,-0.0037848844658583403
1782891279663498500,9.29249853515625,0.21335089206695557,0.17241410911083221,-0.1152469664812088
1782891279673520400,9.302520263671875,0.22993972897529602,0.19662384688854218,-0.13686038553714752
1782891279683542500,9.31254248046875,0.2708386778831482,0.20194058120250702,-0.04007711261510849
1782891279693564400,9.322564453125,0.2849973738193512,0.16076330840587616,0.12142416834831238
1782891279703586300,9.33258642578125,0.2574978470802307,0.10214607417583466,0.2915453016757965
1782891279713608400,9.3426083984375,0.23043906688690186,0.043530166149139404,0.4420860707759857
1782891279723630300,9.35263037109375,0.20676515996456146,0.005653890781104565,0.5704101920127869
1782891279733652500,9.362652587890626,0.1652270406484604,-0.04224199429154396,0.6893312931060791
1782891279743674600,9.372674560546875,0.11308314651250839,-0.09749433398246765,0.7664963603019714
1782891279753696500,9.382696533203125,0.044315800070762634,-0.144968643784523,0.7679821252822876
1782891279763718400,9.392718505859374,-0.035408858209848404,-0.19655168056488037,0.6555056571960449
1782891279773740500,9.402740478515625,-0.10241718590259552,-0.2506716251373291,0.47195208072662354
1782891279783762400,9.412762451171876,-0.12399651110172272,-0.2906712591648102,0.30692851543426514
1782891279793784300,9.422784423828125,-0.1014975979924202,-0.3256681263446808,0.2041475474834442
1782891279803806500,9.432806396484375,-0.041189249604940414,-0.3414556086063385,0.19816182553768158
1782891279813828400,9.442828369140624,-0.011695537716150284,-0.10655014216899872,0.2015211284160614
1782891279823850500,9.4528505859375,0.007031810469925404,-0.23969435691833496,0.0030948594212532043
1782891279833872400,9.462872314453126,-0.021887987852096558,-0.5360080599784851,-0.23190194368362427
1782891279843894500,9.47289453125,-0.11651676148176193,-0.7678857445716858,-0.5426750183105469
1782891279853916400,9.48291650390625,-0.20975376665592194,-0.8498319983482361,-0.8869069218635559
1782891279863938300,9.492938232421874,-0.25651514530181885,-0.7386119961738586,-1.1211665868759155
1782891279873960400,9.50296044921875,-0.22629758715629578,-0.3533807098865509,-1.1428673267364502
1782891279883982300,9.512982421875,-0.1424841731786728,0.2322678565979004,-0.9432657957077026
1782891279894004200,9.523004150390625,-0.06024043634533882,0.7750118374824524,-0.5974173545837402
1782891279904026600,9.533026611328125,0.008274707943201065,1.0192053318023682,-0.252353698015213
1782891279914048500,9.543048583984374,0.07567744702100754,0.9523762464523315,-0.006774548906832933
1782891279924070400,9.5530703125,0.1235770657658577,0.7009391784667969,0.12580160796642303
1782891279934092500,9.563092529296876,0.22153106331825256,0.39679181575775146,0.20742961764335632
1782891279944114400,9.573114501953125,0.2710956931114197,0.058101654052734375,0.2126707285642624
1782891279954136300,9.58313623046875,0.24122141301631927,-0.13043257594108582,0.20585942268371582
1782891279964158500,9.593158447265624,0.15190990269184113,-0.1791311353445053,0.1732599288225174
1782891279974180400,9.603180419921875,0.01513021718710661,-0.12373978644609451,0.08404111117124557
1782891279984203300,9.613203369140624,-0.13965590298175812,0.05751468986272812,-0.0710773691534996
1782891279994225400,9.623225341796875,-0.2740427255630493,0.28978466987609863,-0.26004594564437866
1782891280004247600,9.63324755859375,-0.3748476505279541,0.4882602095603943,-0.4601745307445526
1782891280014269400,9.64326953125,-0.432052344083786,0.6467747688293457,-0.60334312915802
1782891280024291600,9.65329150390625,-0.42572495341300964,0.7468715310096741,-0.6502403616905212
1782891280034313500,9.6633134765625,-0.3525013327598572,0.7864500880241394,-0.5578582286834717
1782891280044335400,9.67333544921875,-0.251687616109848,0.7717558741569519,-0.32909613847732544
1782891280054357500,9.683357421875,-0.1280762106180191,0.6601544618606567,0.003968376200646162
1782891280064379400,9.69337939453125,-0.012921124696731567,0.4885220229625702,0.3977058231830597
1782891280074401300,9.7034013671875,0.056480053812265396,0.35274606943130493,0.7725082039833069
1782891280084423400,9.71342333984375,0.0770186185836792,0.27220863103866577,1.098557949066162
1782891280094445600,9.723445556640625,0.04531208798289299,0.2103918492794037,1.3594404458999634
1782891280104467500,9.733467529296876,-0.01913720928132534,0.09544156491756439,1.501747965812683
1782891280114489300,9.7434892578125,-0.11246342957019806,-0.015277223661541939,1.509966254234314
1782891280124511500,9.753511474609375,-0.2130824476480484,-0.06611670553684235,1.387956976890564
1782891280134533400,9.763533447265624,-0.3053719103336334,-0.028594359755516052,1.1511069536209106
1782891280144555300,9.77355517578125,-0.36806216835975647,0.09042603522539139,0.8524967432022095
1782891280154577400,9.783577392578126,-0.399739146232605,0.3180285692214966,0.5550954341888428
1782891280164599300,9.793599365234375,-0.403622567653656,0.5895543694496155,0.31441813707351685
1782891280174621400,9.803621337890625,-0.3959777057170868,0.8202109932899475,0.1976262629032135
1782891280184643600,9.8136435546875,-0.3818408250808716,0.9406719207763672,0.20568712055683136
1782891280194665500,9.82366552734375,-0.38417428731918335,0.9784155488014221,0.321988970041275
1782891280204687400,9.833687255859376,-0.40845221281051636,0.9200862050056458,0.5534861087799072
1782891280214709500,9.84370947265625,-0.47597745060920715,0.7108951807022095,0.8175627589225769
1782891280224731400,9.8537314453125,-0.5589919090270996,0.3632628917694092,1.0353590250015259
1782891280234753300,9.863753173828124,-0.6121256947517395,0.0177619531750679,1.124411940574646
1782891280244775400,9.873775390625,-0.6138277053833008,-0.17912155389785767,1.074507713317871
1782891280254797600,9.883797607421876,-0.605650782585144,-0.24168133735656738,0.9420021772384644
1782891280264819500,9.8938193359375,-0.629943311214447,-0.26182469725608826,0.7567510604858398
1782891280274841600,9.903841552734375,-0.6855964660644531,-0.25669410824775696,0.5566898584365845
1782891280284863500,9.913863525390624,-0.7132470011711121,-0.20844535529613495,0.36300721764564514
1782891280294885400,9.923885498046875,-0.6806416511535645,-0.13935816287994385,0.18035352230072021
1782891280304907300,9.9339072265625,-0.5838903188705444,-0.1491876244544983,-0.0547785609960556
1782891280314929400,9.943929443359375,-0.42645835876464844,-0.27692481875419617,-0.36191853880882263
1782891280324951300,9.953951416015625,-0.31086039543151855,-0.5545985102653503,-0.7462307810783386
1782891280334973700,9.9639736328125,-0.31951460242271423,-0.9027644395828247,-1.25743567943573
1782891280344995600,9.97399560546875,-0.37844476103782654,-1.0137450695037842,-1.7627636194229126
1782891280355017500,9.984017578125,-0.4139638841152191,-0.7391390204429626,-2.048888683319092
1782891280365039600,9.99403955078125,-0.3639662265777588,-0.20139862596988678,-1.9546641111373901
1782891280375061500,10.0040615234375,-0.21575972437858582,0.380344420671463,-1.5026729106903076
1782891280385083400,10.01408349609375,-0.00827018078416586,0.8388912081718445,-0.8589178919792175
1782891280395105500,10.02410546875,0.17614705860614777,0.9604756832122803,-0.2478843629360199
1782891280405127400,10.03412744140625,0.37010136246681213,0.7679712176322937,0.2421196848154068
1782891280415149600,10.044149658203125,0.5226773023605347,0.26461273431777954,0.559487521648407
1782891280425171700,10.054171630859376,0.5778508186340332,-0.35333436727523804,0.7347083687782288
1782891280435193600,10.064193603515625,0.5286630392074585,-0.9319844245910645,0.7804377675056458
1782891280445215500,10.074215576171875,0.41404616832733154,-1.2675535678863525,0.697192907333374
1782891280455237600,10.084237548828124,0.3049561679363251,-1.2501003742218018,0.4757465720176697
1782891280465259500,10.094259521484375,0.23677952587604523,-0.9465281963348389,0.14378832280635834
1782891280475281400,10.104281494140626,0.15624846518039703,-0.42949676513671875,-0.2283570021390915
1782891280485303300,10.11430322265625,0.031195202842354774,0.19925850629806519,-0.5581873655319214
1782891280495325400,10.124325439453125,-0.12507961690425873,0.8146955966949463,-0.8002471327781677
1782891280505347600,10.13434765625,-0.22909124195575714,1.2337687015533447,-0.8598713278770447
1782891280515369500,10.144369384765625,-0.23454353213310242,1.374342679977417,-0.7258698344230652
1782891280525391600,10.1543916015625,-0.17283622920513153,1.2657933235168457,-0.4197498857975006
1782891280535413500,10.16441357421875,-0.12083747237920761,0.9271334409713745,0.009105348028242588
1782891280545435400,10.174435302734375,-0.17252516746520996,0.42012351751327515,0.4542873501777649
1782891280555457500,10.18445751953125,-0.13997814059257507,-0.013383716344833374,0.885034441947937
1782891280565479400,10.1944794921875,-0.05396443232893944,-0.39195606112480164,1.1641273498535156
1782891280575501600,10.20450146484375,0.012135758996009827,-0.6005910038948059,1.2734410762786865
1782891280585523700,10.214523681640625,0.05372314900159836,-0.5669132471084595,1.2288594245910645
1782891280595545600,10.224545654296875,0.05115506425499916,-0.34227293729782104,1.0609383583068848
1782891280605567500,10.2345673828125,0.007501059677451849,-0.03297259658575058,0.8339494466781616
1782891280615589600,10.244589599609375,-0.07822183519601822,0.2496252804994583,0.6174062490463257
1782891280625611500,10.254611572265626,-0.18894062936306,0.4452221989631653,0.44641342759132385
1782891280635633400,10.26463330078125,-0.2907029390335083,0.5351896286010742,0.32961785793304443
1782891280645655600,10.274655517578125,-0.36226820945739746,0.5242621898651123,0.2597455680370331
1782891280655677400,10.284677490234374,-0.3825034201145172,0.43428486585617065,0.2444358468055725
1782891280665699600,10.294699462890625,-0.36294251680374146,0.31022870540618896,0.28982195258140564
1782891280675721500,10.304721435546876,-0.3235897719860077,0.17694388329982758,0.39221012592315674
1782891280685743600,10.31474365234375,-0.28696146607398987,0.026344522833824158,0.52182936668396
1782891280695765500,10.324765625,-0.25219470262527466,-0.12591798603534698,0.6613297462463379
1782891280705787400,10.334787353515624,-0.2000417411327362,-0.30305972695350647,0.7502542734146118
1782891280715809500,10.3448095703125,-0.14277765154838562,-0.4850844144821167,0.7506710886955261
1782891280725831400,10.35483154296875,-0.11078723520040512,-0.6890679001808167,0.639361560344696
1782891280735853300,10.364853271484375,-0.16291354596614838,-0.8523311018943787,0.4337197542190552
1782891280745875700,10.374875732421875,-0.262035071849823,-0.9094277024269104,0.15388277173042297
1782891280755897600,10.384897705078124,-0.3553413152694702,-0.930387556552887,-0.23001642525196075
1782891280765919500,10.39491943359375,-0.40854063630104065,-0.9477633833885193,-0.728495180606842
1782891280775941600,10.404941650390626,-0.3794671595096588,-0.9577576518058777,-1.2869271039962769
1782891280785963500,10.414963623046875,-0.31560564041137695,-0.8876441121101379,-1.7868788242340088
1782891280795985400,10.4249853515625,-0.2997342646121979,-0.6212342381477356,-2.054489850997925
1782891280806007600,10.435007568359374,-0.30187544226646423,-0.10365768522024155,-1.983885645866394
1782891280816029400,10.445029541015625,-0.27512264251708984,0.4219379127025604,-1.6249948740005493
1782891280826051600,10.455051513671876,-0.18353654444217682,0.7724102139472961,-1.0886211395263672
1782891280836073700,10.46507373046875,-0.04409795254468918,0.8520554900169373,-0.5610992908477783
1782891280846095600,10.475095703125,0.09074268490076065,0.6537631750106812,-0.18486012518405914
1782891280856117500,10.485117431640624,0.24431146681308746,0.2627650499343872,0.03412601351737976
1782891280866139400,10.495139404296875,0.350131630897522,-0.20515714585781097,0.09562931954860687
1782891280876161500,10.50516162109375,0.43288084864616394,-0.49404487013816833,0.04093971103429794
1782891280886183400,10.515183349609375,0.49501773715019226,-0.5707130432128906,-0.08710400760173798
1782891280896205300,10.525205322265625,0.4986550807952881,-0.46270906925201416,-0.2384498566389084
1782891280906227700,10.535227783203124,0.4394705891609192,-0.2584211528301239,-0.39210864901542664
1782891280916249600,10.54524951171875,0.31531694531440735,-0.04643061384558678,-0.5608689188957214
1782891280926271500,10.555271484375,0.14558649063110352,0.15480102598667145,-0.7479338645935059
1782891280936293600,10.565293701171875,-0.02895122393965721,0.33772051334381104,-0.9143132567405701
1782891280946315500,10.5753154296875,-0.17810475826263428,0.44762730598449707,-1.013688087463379
1782891280956337400,10.58533740234375,-0.2723870575428009,0.48607030510902405,-1.0228538513183594
1782891280966359600,10.595359619140625,-0.29602181911468506,0.4868900179862976,-0.9135119318962097
1782891280976381400,10.60538134765625,-0.2647554874420166,0.46100515127182007,-0.6944879293441772
1782891280986403600,10.615403564453125,-0.2101670801639557,0.4051421582698822,-0.3833135664463043
1782891280996425700,10.62542578125,-0.14956338703632355,0.32495439052581787,-0.02689739502966404
1782891281006447600,10.635447509765624,-0.09616728127002716,0.2489863783121109,0.3220888376235962
1782891281016469500,10.645469482421875,-0.04457812011241913,0.16887584328651428,0.6182661652565002
1782891281026491400,10.655491455078124,0.0013909690314903855,0.0915064811706543,0.8350698351860046
1782891281036513500,10.665513427734375,0.032219722867012024,0.028208468109369278,0.967150092124939
1782891281046535400,10.675535400390626,0.04652169719338417,-0.03526158258318901,1.030344009399414
1782891281056557300,10.685557373046874,0.05968916416168213,-0.08761986345052719,1.0350921154022217
1782891281066579500,10.695579345703125,0.07315224409103394,-0.10165072977542877,0.9876412749290466
1782891281076601600,10.7056015625,0.07313785701990128,-0.05961938947439194,0.9060782194137573
1782891281086623500,10.71562353515625,0.0513252392411232,0.09828875213861465,0.7974417805671692
1782891281096645600,10.725645751953126,0.019874105229973793,0.32140013575553894,0.6905536651611328
1782891281106667500,10.73566748046875,-0.018091652542352676,0.5043939352035522,0.6003425717353821
1782891281116689400,10.745689453125,-0.059419918805360794,0.6188294291496277,0.589442789554596
1782891281126711600,10.755711669921874,-0.08771973103284836,0.6452418565750122,0.6617957949638367
1782891281136733400,10.7657333984375,-0.11289432644844055,0.5829566121101379,0.8006335496902466
1782891281146755600,10.775755615234376,-0.1316472440958023,0.4804454445838928,1.0081441402435303
1782891281156777700,10.78577783203125,-0.15027712285518646,0.2992202639579773,1.2025090456008911
1782891281166799600,10.795799560546875,-0.15399542450904846,0.07798321545124054,1.2963389158248901
1782891281176821500,10.805821533203124,-0.12734436988830566,-0.12954413890838623,1.238077163696289
1782891281186843600,10.81584375,-0.07184569537639618,-0.3002636730670929,1.0679563283920288
1782891281196865500,10.825865478515626,-0.033424802124500275,-0.40124011039733887,0.873897910118103
1782891281206887400,10.835887451171875,-0.0518469512462616,-0.40446892380714417,0.7366804480552673
1782891281216909300,10.845909423828125,-0.11053476482629776,-0.3355178236961365,0.7385704517364502
1782891281226931500,10.855931396484374,-0.18005605041980743,-0.4216734766960144,0.7267209887504578
1782891281236953600,10.86595361328125,-0.2100757360458374,-0.8873096108436584,0.42980384826660156
1782891281246975500,10.8759755859375,-0.18506652116775513,-1.4632059335708618,-0.28211158514022827
1782891281256997600,10.88599755859375,-0.15463830530643463,-1.599693775177002,-1.137434720993042
1782891281267019500,10.89601953125,-0.2306414693593979,-1.2387534379959106,-1.8342212438583374
1782891281277041400,10.90604150390625,-0.4064745604991913,-0.5565740466117859,-2.1435635089874268
1782891281287063600,10.9160634765625,-0.5521934032440186,0.27721428871154785,-1.999808430671692
1782891281297085400,10.92608544921875,-0.5606638193130493,0.9334059953689575,-1.5720815658569336
1782891281307107300,10.936107421875,-0.3942684829235077,1.1807793378829956,-1.042473316192627
1782891281317129700,10.946129638671875,-0.14679422974586487,0.999200701713562,-0.5692051649093628
1782891281327151600,10.956151611328124,0.08982682228088379,0.5597922205924988,-0.21676453948020935
1782891281337173800,10.966173828125,0.26834622025489807,0.06425248831510544,0.029751770198345184
1782891281347195600,10.976195556640626,0.3622479736804962,-0.36158323287963867,0.2105276733636856
1782891281357217500,10.986217529296875,0.39206498861312866,-0.6560577750205994,0.35402971506118774
1782891281367239700,10.99623974609375,0.41363686323165894,-0.8259104490280151,0.4756815731525421
1782891281377261600,11.006261474609374,0.4127172529697418,-0.9060678482055664,0.555831253528595
1782891281387283500,11.016283447265625,0.41209807991981506,-0.8654045462608337,0.6283989548683167
1782891281397305600,11.0263056640625,0.3832555115222931,-0.6512560844421387,0.5936750769615173
1782891281407327700,11.03632763671875,0.2965880036354065,-0.4807061553001404,0.48890337347984314
1782891281417349600,11.046349609375,0.10059691220521927,-0.2926957905292511,0.31823495030403137
1782891281427371800,11.056371826171874,-0.05628431215882301,-0.09787116944789886,0.2344372719526291
1782891281437393700,11.0663935546875,-0.1516803354024887,0.0722411721944809,0.1273193359375
1782891281447415600,11.07641552734375,-0.15175677835941315,0.05950087681412697,0.05765371024608612
1782891281457437700,11.086437744140625,-0.04507480189204216,0.04544870927929878,0.08944465965032578
1782891281467459600,11.09645947265625,0.12129952758550644,0.10137882083654404,0.19333723187446594
1782891281477481700,11.106481689453124,0.27516287565231323,0.1513700783252716,0.3053945302963257
1782891281487503600,11.116503662109375,0.3048557639122009,0.22209884226322174,0.3992006480693817
1782891281497525800,11.12652587890625,0.2189435362815857,0.18648278713226318,0.4549802839756012
1782891281507547600,11.136547607421875,0.11841586232185364,0.1336994767189026,0.5362058877944946
1782891281517569500,11.146569580078125,0.07131865620613098,0.07669557631015778,0.6165172457695007
1782891281527591700,11.156591796875,0.07461591064929962,0.09462637454271317,0.6667463183403015
1782891281537613600,11.166613525390625,0.0933576449751854,0.17408257722854614,0.6771529316902161
1782891281547635500,11.176635498046876,0.10098813474178314,0.24754054844379425,0.6590884327888489
1782891281557657600,11.18665771484375,0.104688860476017,0.2685989737510681,0.636974036693573
1782891281567679700,11.1966796875,0.1421733796596527,0.21721993386745453,0.6285302639007568
1782891281577701600,11.20670166015625,0.16271062195301056,0.18775205314159393,0.6235629320144653
1782891281587723800,11.216723876953125,0.08993840962648392,0.15610651671886444,0.6573227643966675
1782891281597745700,11.22674560546875,-0.04236609861254692,0.06234033778309822,0.8185201287269592
1782891281607767600,11.236767578125,-0.1455947458744049,-0.25787147879600525,0.9322395324707031
1782891281617789700,11.246789794921876,-0.21710674464702606,-0.6410375237464905,0.832869291305542
1782891281627811600,11.2568115234375,-0.35839009284973145,-0.8747439980506897,0.5202112197875977
1782891281637833500,11.26683349609375,-0.5599845051765442,-0.7603447437286377,0.0927957147359848
1782891281647855900,11.27685595703125,-0.6754929423332214,-0.38506245613098145,-0.29875287413597107
1782891281657877800,11.286877685546875,-0.6928381323814392,-0.008923720568418503,-0.5667246580123901
