time,seconds_elapsed,z,y,x
1782891391496584400,0.07258447265625,0.23431962800621986,1.6636667869478463,1.6101977932192384
1782891391506606300,0.0826064453125,0.6015723932087421,1.4950322217732668,1.3524848685353994
1782891391516628200,0.092628173828125,0.9591536592245101,1.2129483875513076,1.0753504734143615
1782891391526650400,0.102650390625,1.1924018586069345,1.0668781208842992,0.5331657233934849
1782891391536672300,0.11267236328125,1.10007370352149,0.8095891207009553,0.05807685285024344
1782891391546694400,0.1226943359375,0.8597849379777908,0.5244979213565588,-0.30875169559083876
1782891391556716500,0.132716552734375,0.7390390821814536,0.45924657376706596,-0.7782152005329728
1782891391566738400,0.142738525390625,0.6404051049500703,0.3697995270758867,-1.086850941593945
1782891391576760300,0.15276025390625,0.6119488257944583,0.39904987921863794,-1.1530057408291845
1782891391586781200,0.16278125,0.6387316187798977,0.5176476170703769,-1.14439113028422
1782891391596803300,0.17280322265625,0.7293985626548528,0.6369079104840755,-1.0633186017718166
1782891391606825500,0.182825439453125,0.8951204552531242,0.6161050686910748,-0.8056367298133671
1782891391616847400,0.192847412109375,0.9054822747915983,0.4073430757895112,-0.6059756696689873
1782891391626869500,0.202869384765625,0.9131763364255427,0.17936726385205984,-0.5658546351501718
1782891391636891400,0.212891357421875,0.9115110335618257,-0.06478022294640541,-0.5625368523716926
1782891391646913300,0.222913330078125,0.7003665294378996,-0.36993075224012134,-0.700122345418483
1782891391656935400,0.232935302734375,0.33199031316339966,-0.665842620806396,-0.953511415553838
1782891391666957300,0.242957275390625,-0.07238193012177943,-0.96533643951267,-1.0912550217717885
1782891391676979200,0.252979248046875,-0.6622843438029289,-1.2343491952374577,-0.9663632983423769
1782891391687001300,0.26300146484375,-1.3139035012066365,-1.2868003902256488,-0.749090812857449
1782891391697023500,0.2730234375,-1.6843658761054277,-1.1116522053733466,-0.35314006869792935
1782891391707045400,0.28304541015625,-1.9352701436877249,-0.9557862286180258,0.18532763356119394
1782891391717067500,0.293067626953125,-2.1241011091947555,-0.9031193450525402,0.483189467151463
1782891391727089400,0.30308935546875,-2.3006278889238834,-0.874904181176424,0.43005306637808677
1782891391737110300,0.3131103515625,-2.4083014971792696,-0.769488288719952,-0.04108297488614916
1782891391747132400,0.32313232421875,-2.4483938535928726,-0.7064137006476521,-0.6003066110566259
1782891391757154600,0.333154541015625,-2.3840210424035786,-0.6758814920008183,-1.0792952655173838
1782891391767176400,0.343176513671875,-2.1594208443790675,-0.63481064594388,-1.5265312296256421
1782891391777198300,0.3531982421875,-1.888036683347821,-0.7057043833345175,-1.8123583420291542
1782891391787220500,0.363220458984375,-1.6764847674667833,-0.8441618369102477,-2.0615162043355406
1782891391797242400,0.373242431640625,-1.5314742389857767,-0.9116945734351873,-2.3502865305840968
1782891391807264300,0.38326416015625,-1.4441156890064477,-0.8880614766523242,-2.553545249894261
1782891391817286100,0.3932861328125,-1.2363134810477494,-0.7521765039131045,-2.6709637148335577
1782891391827308500,0.40330859375,-0.9239408915460109,-0.5873115204051137,-2.6363918754070994
1782891391837330400,0.413330322265625,-0.5896352871775626,-0.40889907305985684,-2.494103465366363
1782891391847352300,0.423352294921875,-0.25711539718210696,-0.21547581132650373,-2.364475214934349
1782891391857374500,0.43337451171875,0.013589549413323401,-0.11737287223190068,-2.2984723183251914
1782891391867396400,0.443396240234375,0.25766367871463297,0.010654665005207061,-2.3124679643213746
1782891391877418200,0.453418212890625,0.5829390044093131,0.18749065681397914,-2.211374465108663
1782891391887439400,0.463439453125,0.8848170879036188,0.398285032325983,-2.0713009546384216
1782891391897461500,0.47346142578125,1.2255927650690077,0.5918477025300264,-1.958617993788421
1782891391907483400,0.4834833984375,1.4916647911667822,0.6437748736441135,-1.8167548234224318
1782891391917505300,0.49350537109375,1.7672259456217287,0.6615899317979812,-1.9299251293979585
1782891391927527400,0.50352734375,2.0246073002636433,0.5645443928018212,-1.982441644707322
1782891391937549300,0.51354931640625,2.2327076143860816,0.4404515646651387,-2.009970141493529
1782891391947571200,0.5235712890625,2.469090604662895,0.3202358702227473,-2.1287977425783873
1782891391957593300,0.53359326171875,2.6750147437900305,0.20958324615657328,-2.2232073801130054
1782891391967615500,0.543615478515625,2.8282266989052296,0.03866115456670523,-2.220105322444439
1782891391977637400,0.553637451171875,2.9836972466021776,-0.13654782056212425,-2.171811685527116
1782891391987659500,0.563659423828125,3.185111214828491,-0.3096896340280771,-2.121866335880011
1782891391997681400,0.573681396484375,3.4089947890162464,-0.44166649341285225,-2.1556237901836632
1782891392007703300,0.583703369140625,3.6563323040276763,-0.5983081307157874,-2.246735847477615
1782891392017725400,0.593725341796875,3.9972283927023406,-0.7625953143358231,-2.3926785422421992
1782891392027747300,0.603747314453125,4.345154526144266,-0.9336743500530719,-2.4224581789560613
1782891392037769200,0.613769287109375,4.531297275480628,-1.0220055444568394,-2.2931368025161323
1782891392047790300,0.623790283203125,4.577998820900917,-0.9323328723162412,-2.190199429002404
1782891392057812500,0.6338125,4.368855719727278,-1.0968097332894802,-2.1364080714516342
1782891392067834400,0.64383447265625,3.9585371352583167,-1.3612617569699883,-2.09027950361371
1782891392077856300,0.653856201171875,3.4075597877770663,-1.3255281802877783,-2.0754303095281124
1782891392087878400,0.66387841796875,2.884990788656473,-1.1591133369892834,-2.196730876597762
1782891392097900300,0.673900390625,2.233262910181284,-1.090372101457417,-2.2793502692259846
1782891392107922400,0.68392236328125,1.4315607433378696,-1.056733158966899,-2.2908659349747
1782891392117944600,0.693944580078125,0.5854600473195314,-0.9255337136954068,-2.356847934926301
1782891392127966500,0.703966552734375,0.3083037326276302,-0.8727809054121375,-2.4291030237980187
1782891392137988400,0.71398828125,-0.1573240666091442,-0.8999804625049233,-2.1465606321536
1782891392148010200,0.72401025390625,-0.6078384678661823,-0.7725505989000201,-2.107567176892608
1782891392158032400,0.734032470703125,-0.923877178660035,-0.8499252227425574,-1.9491979851447045
1782891392168054300,0.74405419921875,-1.2378764925807715,-0.9426923537671565,-1.4920695725753903
1782891392178076200,0.754076171875,-1.5432932715952397,-0.7842334379091859,-1.3156446457855402
1782891392188098300,0.764098388671875,-1.8943249698370694,-0.5653165462180971,-1.2369713604345918
1782891392198119400,0.774119384765625,-2.2246885585814713,-0.420402171587944,-1.1765827235106379
1782891392208141300,0.784141357421875,-2.5640952854812142,-0.35694676750451326,-1.1944883094921708
1782891392218163200,0.7941630859375,-2.841682977327704,-0.36353579050600526,-1.2222222657226025
1782891392228185300,0.804185302734375,-3.036533933776617,-0.3476163368403911,-1.2431183387570082
1782891392238207200,0.814207275390625,-3.1380425896614788,-0.3412906409502029,-1.3533365169286726
1782891392248229400,0.8242294921875,-3.1722862200468778,-0.41148178302943705,-1.4020013252459467
1782891392258251500,0.83425146484375,-3.1095103226602077,-0.5578127464592456,-1.2294115927048026
1782891392268273400,0.8442734375,-2.901729157489538,-0.8423582946196198,-0.8094120836336165
1782891392278295300,0.85429541015625,-2.4311948815107343,-1.051814699526131,-0.4906708724154159
1782891392288317400,0.8643173828125,-1.8882921194136142,-1.2561071457982063,-0.167293818090111
1782891392298339300,0.87433935546875,-1.312859545111656,-1.459473417136073,0.11903739877748303
1782891392308361200,0.884361328125,-0.7813298254221678,-1.4874647091284394,0.1084256869980134
1782891392318383400,0.89438330078125,-0.5432353550523519,-1.5131068076461553,-0.029581502059567718
1782891392328405500,0.904405517578125,-0.6154091953814029,-1.5588395080342887,-0.2310985105352476
1782891392338427400,0.914427490234375,-0.986537925234437,-1.4271113627135752,-0.6211268423758447
1782891392348449500,0.924449462890625,-1.430058522081375,-1.0968415897324681,-1.112958173405379
1782891392358470400,0.934470458984375,-1.867715779852867,-0.5627370511189103,-1.4706164501801133
1782891392368492300,0.9444921875,-2.2108365588396786,0.07255494860112667,-1.7276394929036496
1782891392378514200,0.95451416015625,-2.393131400576234,0.5071083951383829,-1.9084575400859116
1782891392388536600,0.96453662109375,-2.4149989489912986,0.8928358514472842,-1.985455731831491
1782891392398558500,0.974558349609375,-2.2227847707867623,1.1936045123949646,-1.7992584758289156
1782891392408580400,0.984580322265625,-1.7481231857448816,1.343384154973924,-1.3189717443816362
1782891392418602500,0.9946025390625,-0.9820815303474664,1.3865803226217626,-0.6663487436976283
1782891392428624400,1.004624267578125,0.10217442631721496,1.3634826478898525,-0.08633125275820493
1782891392438645500,1.0146455078125,1.2781716780900954,1.2964558150604366,0.2666713436977938
1782891392448667600,1.024667724609375,2.2957541454076766,1.1454460461646319,0.4791936755135655
1782891392458689800,1.034689697265625,3.002287965303659,0.8864642705887555,0.5630628124745563
1782891392468711700,1.044711669921875,3.3048136990517376,0.5837701945364475,0.4836733782108873
1782891392478733600,1.054733642578125,3.268277573814988,0.3159066088467836,0.33461350127384065
1782891392488755500,1.06475537109375,2.875120552027225,0.12950666987895965,0.1597063951684162
1782891392498777600,1.074777587890625,2.1763941910117865,0.025114567512273787,-0.07698902205843478
1782891392508798700,1.084798828125,1.4195131626695394,0.035867432194948194,-0.27025135760903357
1782891392518820600,1.094820556640625,0.789781427425146,0.17826017939299343,-0.4445670371599495
1782891392528842800,1.1048427734375,0.33030630559921265,0.27002982381284235,-0.566934977732785
1782891392538864600,1.11486474609375,0.1069435404151678,0.2482511227250099,-0.5483776133116335
1782891392548886500,1.124886474609375,0.14768763873577118,0.27209026347398757,-0.48318924795575435
1782891392558908400,1.134908447265625,0.4376905755192041,0.33801673384606834,-0.5680599631747231
1782891392568930600,1.1449306640625,0.8270072884917259,0.4576382617875933,-0.6995325628317892
1782891392578952400,1.154952392578125,1.2814654589384793,0.5766369816556572,-0.6848901433646678
1782891392588974600,1.164974609375,1.664115115237236,0.6953504548415541,-0.4963968123141676
1782891392598996700,1.174996826171875,1.8718442579597234,0.750407448413968,-0.24581008624844253
1782891392609018600,1.1850185546875,1.8939426925212144,0.7245104983523487,0.04872256638649851
1782891392619040500,1.19504052734375,1.7777935168653725,0.5420537440523505,0.3316091683587059
1782891392629062700,1.205062744140625,1.581540292403102,0.29882278757691383,0.5177799382131546
1782891392639084500,1.21508447265625,1.4747732775986193,0.09237140970528125,0.5372489010538906
1782891392649106400,1.2251064453125,1.5436825631737707,-0.08884382010102272,0.37629283461794255
1782891392659127600,1.23512744140625,1.6959674665719269,-0.27956133000701666,0.07465721811000257
1782891392669149700,1.245149658203125,1.6294459529161451,-0.4858677464500069,-0.15543156739342956
1782891392679171600,1.255171630859375,1.286509298324585,-0.7038464805081486,-0.2744539603980258
1782891392689193500,1.265193359375,0.8354390167504548,-0.8459668405055999,-0.2770719974093139
1782891392699215600,1.275215576171875,0.3414011155873537,-0.9042433806464075,-0.13385025204122067
1782891392709237500,1.285237548828125,-0.08831482779085635,-0.9016410891935229,0.12700265116877854
1782891392719259400,1.29525927734375,-0.4549275415241718,-0.8262818968266248,0.49736624186821277
1782891392729281500,1.305281494140625,-0.7582850499212741,-0.554048425489664,0.7310980600491166
1782891392739303700,1.3153037109375,-0.9499468549400567,-0.3910439751565456,0.8691787162017077
1782891392749325600,1.32532568359375,-1.0716332064568996,-0.31770313687473534,1.304580961588025
1782891392759347700,1.33534765625,-0.9906751711696385,-0.1353796535655856,1.4710340910702944
1782891392769369600,1.34536962890625,-0.7854249857813119,0.03721066349744796,1.5269048852436244
1782891392779391500,1.3553916015625,-0.49123804131150245,0.1610255514755845,1.516005159436166
1782891392789413600,1.36541357421875,-0.276807939645648,0.22005174093991517,1.4499261288508771
1782891392799435500,1.375435546875,-0.24559447073638438,0.35257542055249214,1.2951567151606083
1782891392809456600,1.38545654296875,-0.42249300638735293,0.4909887427255511,1.1151164474178106
1782891392819478500,1.395478515625,-0.6643032824099063,0.5240092610567808,1.0922248166520148
1782891392829500700,1.405500732421875,-0.8791513172268867,0.5351271596595645,1.178258474703133
1782891392839522600,1.4155224609375,-1.0190198066443203,0.6248384102448821,1.1605488496851175
1782891392849544400,1.42554443359375,-1.1522218239098787,0.7036237776681781,1.0883122463181614
1782891392859566600,1.435566650390625,-1.2709808898031711,0.718189478637278,0.9936582055684179
1782891392869588700,1.445588623046875,-1.3688140720456838,0.7311462831050157,0.8974350888710468
1782891392879610600,1.455610595703125,-1.4802829809308051,0.6868605666548013,0.820482782093808
1782891392889632500,1.465632568359375,-1.5493471648067234,0.5666312820784747,0.8119742622718215
1782891392899654700,1.475654541015625,-1.495695654118061,0.44081586793288585,0.822183740792796
1782891392909676500,1.485676513671875,-1.2964876715034246,0.37851913236528634,0.7463098769020289
1782891392919698400,1.495698486328125,-1.0485498525112866,0.30774025352597234,0.6451531762599945
1782891392929720600,1.505720458984375,-0.8357815465778112,0.09692936527058482,0.6891484583962708
1782891392939742500,1.515742431640625,-0.6291396145701408,-0.23818667869791388,0.9061167002376168
1782891392949764600,1.5257646484375,-0.3761392514914274,-0.5715227073818445,1.1017191326409577
1782891392959785500,1.535785400390625,0.04579319840371608,-0.4869184245467186,0.8885654806517064
1782891392969807600,1.5458076171875,0.32291035012900826,-0.2680751826137304,0.46577604860104616
1782891392979829500,1.55582958984375,0.3076554978519678,-0.20301438916027545,0.23131416257992385
1782891392989851400,1.565851318359375,0.19161153613626955,-0.19775617637112736,0.19863062111809848
1782891392999873500,1.57587353515625,0.12258359261751174,-0.16369842394664882,0.32593722366951405
1782891393009895700,1.585895751953125,0.2125450185716152,-0.0515079227887094,0.4831918052390218
1782891393019917600,1.59591748046875,0.3934937063962221,0.09274068140909075,0.5982457330040634
1782891393029939700,1.605939697265625,0.5807341878414154,0.27110534408986564,0.6798026109673082
1782891393039961600,1.615961669921875,0.642878801587224,0.7029881101131439,0.5628608236290514
1782891393049983500,1.6259833984375,0.47700201068818565,0.855050164540857,0.4278015611242503
1782891393060005600,1.636005615234375,0.15182196206152437,0.8828096936039626,0.43202663147337733
1782891393070027500,1.646027587890625,-0.3402051838010549,0.8753982483036815,0.3601995587553829
1782891393080049400,1.65604931640625,-0.9301490985363722,0.7265797058418393,0.2781953023508191
1782891393090071600,1.666071533203125,-1.5029109923243522,0.5869770277537405,0.14837496341280637
1782891393100093700,1.67609375,-2.021004307335615,0.4757270223163068,-0.02182272289264947
1782891393110114600,1.686114501953125,-2.3250708407849072,0.44477600373551246,-0.15862433555275202
1782891393120136400,1.696136474609375,-2.4471260256141423,0.38974268329963085,-0.2298010546032339
1782891393130158600,1.70615869140625,-2.4311872827261687,0.29163360672518607,-0.13188907150346785
1782891393140180500,1.716180419921875,-2.2856536071538924,0.2811165966250002,-0.03715100573208183
1782891393150202600,1.72620263671875,-1.994086489793658,0.2460382689811289,-0.0003966711673885584
1782891393160224800,1.736224853515625,-1.546767085185647,0.05683598594367504,0.2706290318150073
1782891393170246700,1.74624658203125,-1.1090934608012437,-0.10719283900111913,0.5628312687410041
1782891393180268500,1.7562685546875,-0.726399380838871,-0.1581819986127317,0.6629090515725314
1782891393190290700,1.766290771484375,-0.3895511062502861,-0.21712650114297866,0.6885019041210413
1782891393200312600,1.7763125,-0.13707564382851123,-0.259668588796258,0.6756079357564448
1782891393210334500,1.78633447265625,0.00757774177789688,-0.28114918372035025,0.6275195390876382
1782891393220356400,1.7963564453125,0.03428922309279442,-0.2683048997163772,0.5151126187000423
1782891393230378800,1.806378662109375,0.07375438751876354,-0.19122399812340735,0.36487909487374126
1782891393240400600,1.816400634765625,0.01325111123919487,-0.15564809622094034,0.2857525127973407
1782891393250422500,1.826422607421875,-0.018404256218671797,-0.1345835347518325,0.15364114031270146
1782891393260443600,1.836443603515625,0.07780220160484314,-0.054532092915475366,0.0630661125048995
1782891393270465500,1.846465576171875,0.2025239752948284,0.036243279770016665,-0.10477657163962721
1782891393280487400,1.8564873046875,0.48182957697510714,0.04490925517603755,-0.24729221456497907
1782891393290509600,1.866509521484375,0.8871914158195257,-0.04292085783779621,-0.2186700042579323
1782891393300531700,1.87653173828125,1.3387433434307574,0.006780307789891958,-0.22115948298610746
1782891393310553600,1.8865537109375,1.6457330708503721,0.029272710105031727,-0.32900373510066416
1782891393320575500,1.896575439453125,1.764237869721651,-0.020552958685159682,-0.4253828460773453
1782891393330597600,1.90659765625,1.73245975266695,-0.11158099095746875,-0.52649249270726
1782891393340619500,1.91661962890625,1.5515595801591873,-0.24587255702540278,-0.6045115884657949
1782891393350641400,1.926641357421875,1.208037234634161,-0.32399419984295963,-0.7341761523202062
1782891393360663600,1.93666357421875,0.8584761934667825,-0.4320994775138795,-0.859823808683455
1782891393370685700,1.946685791015625,0.5040881705343723,-0.6249437703154981,-0.9668975513495505
1782891393380707600,1.95670751953125,0.17746376831829547,-0.7998816734179854,-1.0915543700445443
1782891393390729700,1.966729736328125,-0.11299977171421051,-0.8747655033580959,-1.2544326367147267
1782891393400750600,1.97675048828125,-0.33807401699125766,-0.900487389113754,-1.3982888805940747
1782891393410772500,1.9867724609375,-0.5152519541054964,-0.885322114816308,-1.4975637860774993
1782891393420794400,1.99679443359375,-0.6864835500359535,-0.7460697114706039,-1.549356663287431
1782891393430816800,2.006816650390625,-0.8118623263299465,-0.5518069301731884,-1.5263969357214868
1782891393440839000,2.0168388671875,-0.9256833512991667,-0.32686142584234473,-1.4770141883932053
1782891393450860800,2.02686083984375,-1.0177215835273266,-0.0931264658562839,-1.3360204943381249
1782891393460882700,2.036882568359375,-1.0125281065374612,0.18481997630000113,-1.1665746858458965
1782891393470904800,2.04690478515625,-0.9899883579492569,0.39766748494952914,-0.9989744321551174
1782891393480926700,2.0569267578125,-0.8650380362004041,0.5098454188868403,-0.7255958093710243
1782891393490948600,2.066948486328125,-0.8108405820667743,0.3802244749784469,-0.41189036383032795
1782891393500970800,2.076970703125,-0.7338876907676458,-0.013936170893907546,0.10344459238350391
1782891393510992600,2.08699267578125,-0.5164706822454929,-0.5562064803063869,0.5691731120483949
1782891393521014800,2.097014892578125,-0.07201017419993877,-0.8882502772226929,0.702837741857022
1782891393531037000,2.107036865234375,0.5923375318735837,-0.8789858975321054,0.5476496278306469
1782891393541058800,2.117058837890625,1.1997452071070671,-0.8260963111266494,0.3373310531368479
1782891393551079700,2.12707958984375,1.4706880541115999,-1.0680325516164302,0.3364217928048223
1782891393561101600,2.1371015625,1.4205997888624666,-1.491491772687435,0.40753209555558856
1782891393571123700,2.147123779296875,1.0934633454710245,-1.7740055227592586,0.1665916977027431
1782891393581145900,2.157145751953125,0.5772761563420296,-1.7588260738059878,-0.4667161789953708
1782891393591167700,2.167167724609375,-0.03890928410887718,-1.5581147008910774,-1.2576567133277654
1782891393601190000,2.17718994140625,-0.5546797091305256,-1.1692436858594417,-1.9024062772229313
1782891393611211800,2.187211669921875,-0.9187760561287402,-0.6337152519226074,-2.146517815925181
1782891393621233700,2.197233642578125,-1.273487904188037,-0.13294687346071005,-1.8583948476694523
1782891393631255600,2.207255615234375,-1.5231038855254648,0.2360939442023635,-1.2575351327747106
1782891393641277700,2.217277587890625,-1.6399819599777459,0.5463727762952446,-0.5444568596713245
1782891393651299800,2.2272998046875,-1.6681746197611091,0.8800392059773207,0.1442137520801276
1782891393661321700,2.23732177734375,-1.528650413736701,1.1897276709616182,0.6587969400785862
1782891393671343900,2.24734375,-1.331511638611555,1.4615467162787914,0.9985575219172984
1782891393681365800,2.25736572265625,-1.1477385410159826,1.6997244810178875,1.1113422626413405
1782891393691387600,2.2673876953125,-0.9705857383430003,1.7742776176989077,1.0719375962309539
1782891393701408800,2.27740869140625,-0.8365443476438522,1.7075950682625174,0.9111734721705317
1782891393711431000,2.287430908203125,-0.6577548836797475,1.5683230834335087,0.6717037679247557
1782891393721452800,2.297452880859375,-0.4190297141909599,1.37058371206671,0.5489384620647877
1782891393731474700,2.307474609375,-0.017802783194184303,1.2319172919154167,0.5360713817071169
1782891393741496800,2.317496826171875,0.42901451711058614,1.1687146935492754,0.5552214878570289
1782891393751518700,2.327518798828125,0.8722200566589832,1.0980775612682103,0.6539230504319071
1782891393761540600,2.33754052734375,1.2214794845312833,1.0687646652832627,0.6995975908920169
1782891393771562800,2.347562744140625,1.4623048411697148,0.9694374450907111,0.6880000920787454
1782891393781584600,2.357584716796875,1.5869126330912113,0.863796219445765,0.5685269230993464
1782891393791606800,2.367606689453125,1.6455179667949675,0.7916217945948243,0.3600552549138665
1782891393801629000,2.37762890625,1.6099205837130546,0.7579512879222631,0.11831429953416808
1782891393811650800,2.38765087890625,1.5157488465875386,0.7034405300557613,-0.15532929432904347
1782891393821672700,2.397672607421875,1.4152455683529377,0.733107646305859,-0.34664456919878717
1782891393831694800,2.40769482421875,1.2327473129987716,0.7768290068715811,-0.43295982067026195
1782891393841715700,2.4177158203125,0.9988029480457306,0.9118570705205201,-0.39255028806626796
1782891393851737900,2.42773779296875,0.7227724225133657,1.0566951650440692,-0.22042437364459036
1782891393861759700,2.437759765625,0.5027975462019443,1.2346838340193032,-0.01885508699240163
1782891393871782000,2.447781982421875,0.33742870482504367,1.419228500509262,0.10119546174984424
1782891393881803800,2.4578037109375,0.15309914239048958,1.565842372533679,0.1622259767739102
1782891393891825700,2.46782568359375,-0.025475802040100096,1.6649644255429505,0.20198179470952599
1782891393901847800,2.477847900390625,-0.15941899306178092,1.7390405923619865,0.17680669264905155
1782891393911869700,2.48786962890625,-0.2910147441744804,1.6906570852041243,0.05487497893585823
1782891393921891600,2.4978916015625,-0.46930794905424117,1.5547092763617634,-0.11946973491329699
1782891393931913700,2.507913818359375,-0.5949807398587464,1.422089150637388,-0.2860277130095288
1782891393941935900,2.517935791015625,-0.6558639553666115,1.3009163016006349,-0.452485664797388
1782891393951957800,2.527957763671875,-0.6392892526626587,1.1767305344834924,-0.537924535293132
1782891393961979600,2.537979736328125,-0.5905629234164953,1.0661559440895914,-0.6207362356230616
1782891393972001800,2.548001708984375,-0.5465946023523807,0.961225789323449,-0.6532134408578276
1782891393982023700,2.558023681640625,-0.5993336743712425,0.826050133897364,-0.568320221546106
1782891393992044800,2.568044921875,-0.7262234397500753,0.5629194219484925,-0.30458014552723617
1782891394002067000,2.57806689453125,-0.8425304363161324,0.2232850237727165,-0.08556010398892686
1782891394012088800,2.5880888671875,-0.8731213894128799,0.13671937773674725,-0.17474186907373368
1782891394022110700,2.59811083984375,-0.8398556641489267,0.26615269011855125,-0.544490981136635
1782891394032132600,2.608132568359375,-0.8215513611733913,0.41569793941974637,-1.0390748257447033
1782891394042154800,2.61815478515625,-0.9166858058512211,0.5226283280923962,-1.5566438976861536
1782891394052176600,2.6281767578125,-1.1135387497723102,0.5330319409459829,-1.982680421899259
1782891394062198500,2.638198486328125,-1.3638690168589354,0.4512582053616643,-2.1834556538306176
1782891394072221000,2.648220947265625,-1.5378811834186314,0.4317950877398252,-2.263883527763933
1782891394082242800,2.658242919921875,-1.544293973070383,0.4286597123235464,-2.1045301472842692
1782891394092264700,2.6682646484375,-1.3149556406080722,0.5338713143795728,-1.8116139534026383
1782891394102286800,2.678286865234375,-0.7962222741276025,0.6928168447107076,-1.4260484096571802
1782891394112308700,2.688308837890625,-0.18202303905785083,0.8708455534353852,-1.0282695732876659
1782891394122330600,2.69833056640625,0.36330022818446156,0.9363885774478315,-0.7039369352705777
1782891394132351700,2.708351806640625,0.731886287817359,0.8893450867220759,-0.5451697571810334
1782891394142374000,2.718373779296875,0.8562824828147888,0.7833592854231596,-0.5104690306778997
1782891394152395800,2.728395751953125,0.7975345257699489,0.608012363128364,-0.5607284512428566
1782891394162417700,2.738417724609375,0.5777823522984982,0.39420886892825363,-0.621089871366322
1782891394172439800,2.748439697265625,0.31223639590144153,0.1693839222371578,-0.6999135249733924
1782891394182461700,2.758461669921875,0.16424539030492305,-0.05409837767332792,-0.7368041627362371
1782891394192483600,2.768483642578125,0.1575157897889614,-0.22243483668416736,-0.7421705120749771
1782891394202505700,2.778505615234375,0.3027659722447395,-0.2775058587819338,-0.7340881087105721
1782891394212527900,2.78852783203125,0.5303098225057125,-0.28141251083165403,-0.6330823608465492
1782891394222549800,2.7985498046875,0.7722025161147117,-0.2618465173572302,-0.5279615788791329
1782891394232572000,2.808572021484375,0.9187415693372487,-0.2563905900388956,-0.44221148700974877
1782891394242593800,2.81859375,0.9343097253471613,-0.23620120396912098,-0.41299006870053706
1782891394252615700,2.82861572265625,0.8529682437002658,-0.1430722538948059,-0.44816915330514306
1782891394262637800,2.838637939453125,0.6514730269312858,-0.05357756866961717,-0.5539609664019197
1782891394272659000,2.848658935546875,0.3063134355932474,0.028641864855587482,-0.7031131247323006
1782891394282680800,2.858680908203125,-0.042833764076232905,0.11056728387027978,-0.8624852829776704
1782891394292702700,2.86870263671875,-0.3113029144436121,0.21720541159808635,-1.0221766632400453
1782891394302724900,2.878724853515625,-0.4595131157487631,0.28939971019327637,-1.096460043068975
1782891394312746800,2.888746826171875,-0.5148936421871185,0.34338556740283965,-1.033980132954195
1782891394322768600,2.8987685546875,-0.5163748206555843,0.3552095684483647,-0.8259362982593477
1782891394332790800,2.908790771484375,-0.4289589875310659,0.38732992306947706,-0.5749355480326339
1782891394342812700,2.918812744140625,-0.31591479215323925,0.42130847277790306,-0.3837177239216864
1782891394352834800,2.928834716796875,-0.20184709894657135,0.4264665861934423,-0.15712549356343225
1782891394362856700,2.938856689453125,-0.10440729993581771,0.40514731931090353,0.09833965219361707
1782891394372878800,2.94887890625,-0.008394903379678726,0.39558132632523774,0.38918099429626013
1782891394382900700,2.958900634765625,0.07078793892860412,0.42138241479694843,0.7035102342911064
1782891394392922600,2.968922607421875,0.1452940215975046,0.40868981422334905,1.046556852063164
1782891394402944800,2.97894482421875,0.1672925029158592,0.4113783226549625,1.276761372900754
1782891394412966700,2.988966552734375,0.09366495664715767,0.38909342561066146,1.437698661570996
1782891394422987800,2.99898779296875,-0.05240881715118885,0.3233782599017024,1.5216250451445579
1782891394433010000,3.009010009765625,-0.2939993129432201,0.257132056055963,1.5301467897742986
1782891394443032600,3.019032470703125,-0.5223106404453516,0.16503975555300712,1.5211775936380028
1782891394453054700,3.0290546875,-0.7399439220666885,0.12167904499322175,1.481238089698553
1782891394463076600,3.03907666015625,-0.8899275627851486,0.10527239233255385,1.387516142167151
1782891394473098500,3.049098388671875,-0.9226701409578323,0.07849427552223205,1.2661636987797915
1782891394483120600,3.05912060546875,-0.900379983216524,0.023389058893918988,1.1107624169267714
1782891394493142500,3.069142578125,-0.8193681719154119,-0.0747688252583146,0.9690465460769832
1782891394503164400,3.079164306640625,-0.6879220584064721,-0.14494184715896843,0.8166549674339592
1782891394513186800,3.089186767578125,-0.5460287851631641,-0.1671998561963439,0.6711975719682872
1782891394523208700,3.099208740234375,-0.42262393929064274,-0.1950695676356554,0.5000787156973033
1782891394533230600,3.109230712890625,-0.3519809617906809,-0.17358517331928014,0.23248726147990673
1782891394543252700,3.119252685546875,-0.3567126664876938,-0.08870002771615981,-0.06636230450607836
1782891394553274600,3.129274658203125,-0.3760083185881376,0.0744616590052843,-0.377641143954359
1782891394563295500,3.13929541015625,-0.4511906930834055,0.2888289245679974,-0.6034875426476821
1782891394573317600,3.149317626953125,-0.6213800864845513,0.45991409776508807,-0.7052013291832059
1782891394583339800,3.15933984375,-0.7989864781439304,0.6371031407952308,-0.7023921900466084
1782891394593361700,3.169361572265625,-0.9517594573199748,0.8275356962800026,-0.6816599292717873
1782891394603383600,3.179383544921875,-1.1021224527448414,1.0187959347605704,-0.6182259333025664
1782891394613405700,3.18940576171875,-1.1050678585469722,1.213113807246089,-0.517193662757799
1782891394623427600,3.199427490234375,-0.9123755414366722,1.3799842853575943,-0.3474498576996848
1782891394633449500,3.209449462890625,-0.6384171460032463,1.4462255207672714,-0.2024463434813544
1782891394643471600,3.2194716796875,-0.3660246847122907,1.4293901213005185,-0.05003321059364825
1782891394653493800,3.22949365234375,-0.07940320706069469,1.3508695422932504,0.05708835326954722
1782891394663515600,3.239515625,0.20971242549419403,1.202538929478824,0.11976667203325778
1782891394673537800,3.249537841796875,0.41675826212763784,0.981442647922039,0.16700528347231447
1782891394683559700,3.2595595703125,0.5335848986536265,0.6786442347124219,0.20520283911526202
1782891394693581600,3.26958154296875,0.6091226624578238,0.3934454833403229,0.2103367679376155
1782891394703603500,3.279603515625,0.6075128891736269,0.12749299196898936,0.1683245493773371
1782891394713624800,3.289624755859375,0.594381020399928,-0.10076631308495998,0.11082315832749008
1782891394723646700,3.299646728515625,0.5249824900031089,-0.3725929571866989,0.03146583623513579
1782891394733668600,3.309668701171875,0.48257425786256786,-0.5985320025995373,-0.05822663658447563
1782891394743690800,3.319690673828125,0.47230654634833336,-0.7336065357387066,-0.20450258189141748
1782891394753712600,3.329712646484375,0.5336182164013386,-0.8619780641078948,-0.3040546603484079
1782891394763734500,3.339734619140625,0.6488368332087994,-0.9029065790846943,-0.26922954028062523
1782891394773756400,3.34975634765625,0.7765034281790256,-0.8865496107846498,-0.22111374414823948
1782891394783778600,3.359778564453125,0.9075263478398322,-0.7578612715512514,-0.14181330334227532
1782891394793800700,3.36980078125,1.0097153872042894,-0.619793694075942,-0.03693849549256265
1782891394803822600,3.379822509765625,1.0635820019483566,-0.4864715575620532,0.13396299170069395
1782891394813844700,3.3898447265625,1.0424135417133569,-0.3071501786783337,0.3545566940302029
1782891394823866600,3.39986669921875,0.9599047698527574,-0.1685527321100235,0.6650606766484677
1782891394833888500,3.409888427734375,0.8512883277893066,0.008532266023755073,0.9798668499726801
1782891394843910700,3.41991064453125,0.7615127797961234,0.16052958465218542,1.1862272616252303
1782891394853931800,3.429931884765625,0.7147919451534748,0.24365970328152178,1.4281383676737547
1782891394863953700,3.43995361328125,0.7246995911836623,0.2894634230792522,1.6627995025940239
1782891394873975600,3.4499755859375,0.7677151415675878,0.29797289274930955,1.8851792480900882
1782891394883997700,3.459997802734375,0.8372750000059604,0.2617939103871584,2.0859348985381425
1782891394894019600,3.47001953125,0.9192337367683648,0.18953093046993016,2.2492188964650035
1782891394904041500,3.48004150390625,1.0300380442649126,0.08967647153288126,2.332915709066391
1782891394914063600,3.490063720703125,1.1223521708250046,-0.03671937284916639,2.384794949385524
1782891394924085500,3.50008544921875,1.1493196727275847,-0.19898001907765864,2.46647019303143
1782891394934107600,3.510107666015625,1.1576643072247506,-0.28876082776784895,2.481349197733402
1782891394944129800,3.5201298828125,1.1584849759578704,-0.3536310670852661,2.476608725208044
1782891394954151700,3.530151611328125,1.1393979981720448,-0.4513467604279518,2.4945281205192207
1782891394964173600,3.540173583984375,1.071964045846462,-0.5014174900203943,2.4702353907838464
1782891394974195700,3.55019580078125,0.9813134685844183,-0.4888350718230009,2.4249039646729824
1782891394984217600,3.560217529296875,0.8616822960317134,-0.4708396886661648,2.4430250200361012
1782891394994239500,3.570239501953125,0.6983312242180109,-0.43907472335398195,2.508057756438851
1782891395004260600,3.580260498046875,0.4800327566862106,-0.3698059568166733,2.5459862128168345
1782891395014282800,3.59028271484375,0.24764906517863272,-0.2586135267853737,2.525449036222696
1782891395024304600,3.6003046875,0.06312836408615112,-0.1518625863328576,2.483654552066326
1782891395034326500,3.610326416015625,-0.04270692282617092,-0.055638300591707227,2.3766272788904605
1782891395044348700,3.6203486328125,-0.14476853641867637,0.04007569753974676,2.2788000879973174
1782891395054370600,3.63037060546875,-0.22766835342347622,0.07345949622541666,2.177234148967266
1782891395064392400,3.640392333984375,-0.29202129086852074,0.13285393448024987,2.0354208090923724
1782891395074414800,3.650414794921875,-0.41013095294237134,0.2028013309314847,1.8837367941968142
1782891395084436700,3.660436767578125,-0.5845569609999657,0.24497984596937894,1.7336533463656902
1782891395094458600,3.670458740234375,-0.7527987274646759,0.25595541349202394,1.636807421594858
1782891395104480500,3.68048046875,-0.9360141911774873,0.2658519536063075,1.5570391806140542
1782891395114502700,3.690502685546875,-1.049686747586727,0.2990720861628651,1.5599807870239017
1782891395124524500,3.700524658203125,-1.0969061794012784,0.3375640216425061,1.5646670451439917
1782891395134546400,3.71054638671875,-1.0785556991964578,0.32134938442260025,1.602012002545595
1782891395144567800,3.72056787109375,-1.0001385805636644,0.3180287155672908,1.6042786323033271
1782891395154589700,3.730589599609375,-0.9216121563374996,0.27786504748314617,1.535788448923081
1782891395164611600,3.740611572265625,-0.890016410112381,0.21417495786100624,1.4309396888300776
1782891395174633500,3.750633544921875,-0.8381284019649028,0.1301706867456436,1.2967811014920472
1782891395184655600,3.760655517578125,-0.7596732894092798,0.04598521384447813,1.1621063082601875
1782891395194677500,3.770677490234375,-0.6745370916545391,-0.03965659534484148,1.048982179513946
1782891395204699400,3.780699462890625,-0.5983674596875905,-0.1330991414129734,0.9599833880469203
1782891395214721800,3.7907216796875,-0.4922901807129383,-0.22271365362554787,0.8880059470728039
1782891395224743700,3.80074365234375,-0.3863058407187462,-0.26999942867457866,0.837609638787806
1782891395234765600,3.810765625,-0.23184417780339717,-0.2916580105140805,0.7405581815075128
1782891395244787700,3.82078759765625,-0.11348200227320193,-0.32607787424921986,0.6117037284595892
1782891395254809600,3.8308095703125,-0.015156068077683448,-0.3577680207595229,0.5196443803781643
1782891395264831500,3.84083154296875,0.014226678273081779,-0.38705373647660013,0.39510844811648127
1782891395274853600,3.850853515625,0.03455518055260181,-0.42436318417340513,0.2817184715082869
1782891395284874800,3.860874755859375,0.028924481189250943,-0.5078218041047453,0.2109822262343019
1782891395294896600,3.870896728515625,0.07631400887370109,-0.6006196225285529,0.17744203141052275
1782891395304918500,3.88091845703125,0.15336276176273822,-0.6614753655076027,0.17311949203629046
1782891395314940700,3.890940673828125,0.2954302225291729,-0.6834235779434442,0.14077166706854477
1782891395324962600,3.900962646484375,0.47460663998425007,-0.6931301484435797,0.11941922856876626
1782891395334984400,3.910984375,0.6305956585973501,-0.6331888899609446,0.1517848814541474
1782891395345006600,3.921006591796875,0.7569879958480596,-0.5698714330434799,0.1703283634804189
1782891395355028700,3.93102880859375,0.8060416573524475,-0.4742275775387883,0.19982202285975217
1782891395365050600,3.941050537109375,0.762459120735526,-0.43625762010663743,0.23753563091065732
1782891395375072800,3.95107275390625,0.668988809877634,-0.40328678613603114,0.27199217339437454
1782891395385094700,3.9610947265625,0.6137199271202087,-0.33123072696775196,0.2753033072363585
1782891395395116500,3.971116455078125,0.6135147599369287,-0.2730138080596924,0.24182154633523895
1782891395405138700,3.981138671875,0.6670750852108002,-0.2408770868256688,0.273907140170224
1782891395415160600,3.99116064453125,0.7774608750343323,-0.1688593138411641,0.3035494690389372
1782891395425181700,4.001181640625,0.9453805699378252,-0.03504559441804886,0.29764269268056376
1782891395435203600,4.01120361328125,1.0948650289624928,0.0931926629602909,0.33213213278688486
1782891395445225500,4.0212255859375,1.1201304031223058,0.16689911968410015,0.30007492479616776
1782891395455247400,4.031247314453125,1.021411670216918,0.16671967146396635,0.2674319528067484
1782891395465269500,4.04126953125,0.7585206122428179,0.1021288336098194,0.26363453328516334
1782891395475291400,4.05129150390625,0.5197895975351333,-0.04171937309354543,0.22267438106108456
1782891395485313500,4.0613134765625,0.3565501694023609,-0.15489157876521348,0.2260191979769617
1782891395495335400,4.07133544921875,0.26695348510742184,-0.25254765087515113,0.16204342328123747
1782891395505357600,4.081357666015625,0.22467384778261185,-0.36900107017457484,-0.007469459097832441
1782891395515379500,4.09137939453125,0.13942249921560287,-0.45050124951452014,-0.29393167280079796
1782891395525401300,4.1014013671875,0.032255086916685105,-0.43943303527235983,-0.6199926507141441
1782891395535423500,4.111423583984375,-0.15230769975185393,-0.37636633824557064,-0.9584506985869258
1782891395545445400,4.1214453125,-0.43127135612666606,-0.24682108992189167,-1.1944460047204046
1782891395555467300,4.13146728515625,-0.8263795119822025,-0.07109685874730348,-1.4094178851127623
1782891395565489400,4.141489501953125,-1.2559931640297173,0.14907090978771448,-1.6015366401188074
1782891395575510500,4.151510498046875,-1.6312345898985863,0.40948564077615734,-1.7990990474835038
1782891395585532400,4.161532470703125,-1.9892308664560316,0.6008364801496267,-1.798787935707718
1782891395595554300,4.17155419921875,-2.221285472139716,0.7506240137740969,-1.646255633419752
1782891395605576400,4.181576416015625,-2.3204636392503977,0.8611249544098972,-1.451223621315509
1782891395615598300,4.191598388671875,-2.3050533041507006,0.9330392670199275,-1.274126055961102
1782891395625620500,4.201620361328125,-2.2022294740140436,0.9988201914414763,-1.1781154129706322
1782891395635642600,4.211642578125,-1.9801912354320286,0.9783426360800862,-1.163606118363887
1782891395645664500,4.22166455078125,-1.6801643327623605,0.9077624946832656,-1.2821855899065733
1782891395655686400,4.231686279296875,-1.3687369151562452,0.830973854035139,-1.4270600709177552
1782891395665708500,4.24170849609375,-1.0777899755209683,0.7312728320941329,-1.551205652154982
1782891395675730400,4.25173046875,-0.8326970245659351,0.698351390223205,-1.6975506441101431
1782891395685752300,4.26175244140625,-0.6111223118424415,0.6738631379157304,-1.755080749797821
1782891395695774500,4.2717744140625,-0.4307277507692575,0.6590382014885544,-1.7290538897462189
1782891395705796600,4.281796630859375,-0.22853052321076392,0.6782286396488547,-1.6470425460137426
1782891395715817500,4.2918173828125,-0.07223346156179905,0.7148050968959927,-1.5243176452293992
1782891395725839400,4.30183935546875,0.04962941556572914,0.7053267821937799,-1.3928947664655744
1782891395735861500,4.311861572265625,0.12850304579436778,0.6845537510171532,-1.2485295501507818
1782891395745883400,4.32188330078125,0.22714286824464797,0.6479430992394686,-1.1370461743488907
1782891395755905300,4.3319052734375,0.37153672613203526,0.6388081911474466,-1.0648442039038986
1782891395765927700,4.341927734375,0.5378612607985734,0.6059013623237609,-1.0759480009160935
1782891395775949600,4.351949462890625,0.6873281841665506,0.546014172115922,-1.1322367282405494
1782891395785971500,4.361971435546875,0.8234247538298368,0.4635051079943776,-1.1655134132899343
1782891395795993600,4.37199365234375,0.9165724086046219,0.35763679559528827,-1.2735793818637728
1782891395806015500,4.382015380859375,1.0253910952419043,0.264765619674325,-1.341408324856311
1782891395816037400,4.392037353515625,1.1417881081789731,0.15332535236179828,-1.4225978308118878
1782891395826059300,4.402059326171875,1.266679977738857,0.09530717089623213,-1.5620738137803971
1782891395836081400,4.412081298828125,1.3288210843533277,0.0740066087141633,-1.695238275514543
1782891395846103600,4.422103515625,1.36080144598186,0.12065846977382898,-1.8026599548354745
1782891395856124400,4.43212451171875,1.4342057048887014,0.21030250034183262,-1.8190455647081136
1782891395866146600,4.442146484375,1.5163573338747023,0.3102957832276821,-1.7666127821594475
1782891395876168400,4.45216845703125,1.5972072326123714,0.38822570286542174,-1.6029538134403525
1782891395886190300,4.4621904296875,1.636630311462283,0.46503187917023897,-1.4431573653683065
1782891395896212200,4.472212158203125,1.6212117930561303,0.5342106293365358,-1.3752733311876655
1782891395906234600,4.482234619140625,1.5644459497392176,0.5468079528421164,-1.2686642834238708
1782891395916256500,4.492256591796875,1.3761515753269196,0.4789166121378541,-1.2735459179855881
1782891395926278400,4.5022783203125,1.0958400114744902,0.35382775870114563,-1.3718269901260733
1782891395936300500,4.512300537109375,0.7960241212069987,0.148142981287837,-1.5271987536236642
1782891395946322400,4.522322509765625,0.5262941571235656,-0.09265694864839315,-1.659862426228821
1782891395956344300,4.53234423828125,0.3079688015848398,-0.3357838602274656,-1.8432351263299582
1782891395966366500,4.542366455078125,0.09958324078023433,-0.6115136492475867,-2.0056261209398505
1782891395976388400,4.552388427734375,-0.04576104969978332,-0.902347776158154,-2.0890162056796253
1782891395986410500,4.562410400390625,-0.1649842259734869,-1.1409668549239635,-2.154521235769242
1782891395996431400,4.572431396484375,-0.16983575765788553,-1.3357687115341423,-2.1479040095865725
1782891396006453500,4.58245361328125,-0.05378653524518013,-1.4174226201310753,-2.0558456113532184
1782891396016475400,4.592475341796875,0.2680594005227089,-1.3570742421522737,-1.9499968804374337
1782891396026497300,4.602497314453125,0.5554653065502643,-1.1923632801622153,-1.7987728842690587
1782891396036519400,4.61251953125,0.7264163319736718,-1.059401793654263,-1.6496452758580444
1782891396046541600,4.62254150390625,0.6909989816337824,-0.9869377382069826,-1.5688219728663564
1782891396056563500,4.6325634765625,0.4920318220376968,-0.9846937586724758,-1.5785862649030982
1782891396066585600,4.642585693359375,0.27099896110594274,-1.0529781903475521,-1.5817176947966216
1782891396076607500,4.652607421875,0.15154957486093043,-1.1441744187936187,-1.626708636906743
1782891396086629400,4.66262939453125,0.10165361731350421,-1.1723264543056486,-1.5868587109468877
1782891396096651500,4.672651611328125,0.08208557801246642,-1.226756255890429,-1.5248378697112202
1782891396106673400,4.68267333984375,0.05165186130404472,-1.295595398838818,-1.4974584260068833
1782891396116695300,4.6926953125,-0.056823126462101935,-1.3335945823654531,-1.5196473153308032
1782891396126717400,4.702717529296875,-0.24634850397408006,-1.3251114161804318,-1.5635510467261076
1782891396136738600,4.712738525390625,-0.5150637380570173,-1.2402642645001412,-1.6103884934857486
1782891396146760400,4.722760498046875,-0.9265525353491306,-1.183053600025177,-1.571486662030965
1782891396156782300,4.7327822265625,-1.38562492159307,-1.142903375944495,-1.4596313841767607
1782891396166804500,4.742804443359375,-1.9187129766404627,-1.0436787393435836,-1.3164469020791352
1782891396176826400,4.752826416015625,-2.4837615195721385,-0.90427611387223,-1.0005850822221487
1782891396186848500,4.7628486328125,-2.913899487754702,-0.8017845844298601,-0.570079084444791
1782891396196870700,4.77287060546875,-3.074695614388585,-0.5663964504092931,-0.1534338725038804
1782891396206892500,4.782892578125,-3.0274048709034918,-0.34348756647258993,0.2299690315812826
1782891396216914400,4.79291455078125,-2.7781793501883745,-0.18120324710756538,0.6618488019298762
1782891396226936300,4.802936279296875,-2.4437930817991496,-0.058713177992403505,0.964934799909219
1782891396236958500,4.81295849609375,-2.097693579262495,0.05603548321574926,1.0854591949746013
1782891396246980400,4.82298046875,-1.779926437240839,0.13759060761332512,1.1257174094744027
1782891396257002200,4.833002197265625,-1.5942822850763796,0.16281068132668733,1.1409861441463232
1782891396267024600,4.843024658203125,-1.5252256999850273,0.23198270949125288,1.1506403268720955
1782891396277045500,4.85304541015625,-1.5814976223051547,0.34053602319061754,1.1154986516684293
1782891396287067400,4.8630673828125,-1.7639269040763377,0.47525399797707796,1.1175975236438214
1782891396297089300,4.87308935546875,-1.9540572617441414,0.5914718549549579,1.1213500080451368
1782891396307111400,4.883111328125,-2.1091396869063375,0.7196867314577102,1.126419054937735
1782891396317133300,4.89313330078125,-2.121927272287011,0.8583934836193918,1.1736642787806688
1782891396327155500,4.903155517578125,-2.0396850424081086,0.9971391064867376,1.2641311700388789
1782891396337177600,4.913177490234375,-1.8387421988248824,1.0768465571910142,1.460081612162292
1782891396347199500,4.923199462890625,-1.4876047021210193,1.024123559524119,1.7991104456603526
1782891396357221400,4.933221435546875,-0.9566869768500328,1.0006704954832792,2.1753417593494055
1782891396367243500,4.943243408203125,-0.2424386370539665,1.038498998618126,2.4367421403743323
1782891396377265400,4.953265380859375,0.5502408499002457,1.0331392251506448,2.625934194278717
1782891396387287300,4.963287353515625,1.2917425228029489,0.9987097168043255,2.818134343957901
1782891396397309400,4.973309326171875,1.9049960014551877,1.0123425208374857,2.918823207892477
1782891396407331600,4.98333154296875,2.256011917605996,0.9540931609645485,2.932224541257322
1782891396417352400,4.9933525390625,2.3661545463234184,0.7958060945421457,2.890399369701743
1782891396427374300,5.003374267578125,2.241593516153097,0.6645028966352343,2.794519367353618
1782891396437396500,5.013396484375,1.860714376658201,0.5212333666026592,2.629044727514684
1782891396447418000,5.023418212890625,1.3511474824517964,0.4432087544187903,2.407948007566482
1782891396457440300,5.033440185546875,0.8309130637586116,0.4494260214984417,2.2566407170288265
1782891396467462400,5.04346240234375,0.46864685479700563,0.51462037820369,2.1811481075406074
1782891396477484300,5.053484375,0.26956220630109307,0.6135314188107848,2.180516239377856
1782891396487506200,5.063506103515625,0.26913725888729095,0.7362798466011882,2.175594565066695
1782891396497528300,5.0735283203125,0.4064116401582956,0.8129688262671232,2.1436558506228027
1782891396507550200,5.08355029296875,0.6348340268194675,0.8380112053260207,2.0378693712882696
1782891396517572000,5.093572021484375,0.8700988267213106,0.8153565981864929,1.8798808494210242
1782891396527594000,5.103593994140625,1.0543734440982342,0.7266475103810429,1.7141360143385826
1782891396537616100,5.1136162109375,1.2211971604585647,0.6042915890395641,1.5400851232036947
1782891396547638300,5.12363818359375,1.305450145637989,0.44426001703739165,1.322303957544267
1782891396557659100,5.1336591796875,1.313900578597188,0.24602614015191793,1.195752338078618
1782891396567681300,5.143681396484375,1.205719020819664,0.07337357150763273,1.1204372771143913
1782891396577703200,5.153703125,1.013861985489726,-0.09088876993209123,1.0774750643528996
1782891396587725000,5.16372509765625,0.8176081765055656,-0.21816987271606922,0.9624067427363246
1782891396597747200,5.173747314453125,0.6497142005652189,-0.31528555433899164,0.8171917046591639
1782891396607769300,5.183769287109375,0.4704115263819694,-0.37655075490176676,0.7136702476471662
1782891396617791200,5.193791259765625,0.3122568541675806,-0.4625573057502508,0.6534954726696014
1782891396627813000,5.203813232421875,0.12228782454133033,-0.5122527722895145,0.5452258712824434
1782891396637835300,5.213835205078125,-0.018928572353720665,-0.5072112709909677,0.4162556829003617
1782891396647857200,5.223857177734375,-0.08897826013565063,-0.5326166381433606,0.36760059225950387
1782891396657879000,5.233879150390625,-0.08290800031125545,-0.5136345820367336,0.38262265869397666
1782891396667901200,5.243901123046875,-0.03389642438292503,-0.4639540208056569,0.43449514047876
1782891396677923300,5.25392333984375,0.009355272844433785,-0.421435314027965,0.48334286761488765
1782891396687945200,5.2639453125,0.012290157252550124,-0.37092590075731274,0.542332232200168
1782891396697966000,5.273966064453125,-0.07435936767458916,-0.30807723039537666,0.533787508553639
1782891396707988200,5.28398828125,-0.1837415334135294,-0.2646957693085074,0.49127797146309166
1782891396718010000,5.294010009765625,-0.29216274516582486,-0.24365561162829397,0.3810040079835802
1782891396728032000,5.304031982421875,-0.38846798718869685,-0.2649509131133556,0.22083837953926994
1782891396738054400,5.314054443359375,-0.5219464833080768,-0.3140910838574171,0.0744426985764876
1782891396748076300,5.324076171875,-0.6868471226513385,-0.4232458705812692,-0.02631685597412288
1782891396758098200,5.33409814453125,-0.8798211793124675,-0.5902057805418968,0.016406652660667896
1782891396768120300,5.344120361328125,-1.0733037700176238,-0.9345379811450838,0.33100824332349
1782891396778142200,5.35414208984375,-1.0944611243367195,-1.4347276829361915,0.8456540482293814
1782891396788164000,5.3641640625,-0.8405722879856824,-1.7715601754337549,1.1512548785738645
1782891396798186200,5.374186279296875,-0.22915186997950077,-1.5725126440778374,0.7693864357806742
1782891396808208100,5.3842080078125,0.4085638497561216,-1.062231171861291,-0.09450707002710551
1782891396818230300,5.394230224609375,0.7089075632899999,-0.7671075310632586,-0.8275056664679199
1782891396828252400,5.40425244140625,0.6094120007932186,-0.7757377045035362,-1.1545192871972918
1782891396838273300,5.414273193359375,0.09916004693210125,-0.7397460614070296,-1.3591247449412942
1782891396848295200,5.424295166015625,-0.6699491793423891,-0.434063324932754,-1.5557479717597364
1782891396858317000,5.434317138671875,-1.3801198944360018,0.10522387701570987,-1.5843296308606862
1782891396868339200,5.444339111328125,-1.8699024762421845,0.7610714657694101,-1.4589914788380265
1782891396878361300,5.454361328125,-2.250676401796937,1.34591893414855,-1.2763748578011989
1782891396888383200,5.46438330078125,-2.44856687207222,1.752411822849512,-0.9920826998800039
1782891396898405400,5.4744052734375,-2.389384030741453,1.9667299885734915,-0.5614093096464872
1782891396908427300,5.48442724609375,-2.0763906789928672,2.0606018659695984,-0.061556255931220945
1782891396918449200,5.49444921875,-1.5803355927884577,1.957014357984066,0.38462073717601597
1782891396928471000,5.504470947265625,-1.217374971821904,1.733660945150256,0.5970329962134361
1782891396938493200,5.5144931640625,-0.7329629771381616,1.584197528913617,0.43374446824192997
1782891396948515000,5.52451513671875,-0.062189621931314464,1.4283064177170395,0.2895923832211643
1782891396958537200,5.534537109375,0.7110743859350681,1.2221367793962359,0.32780652467273175
1782891396968558300,5.544558349609375,1.3952245245873927,0.9830117969349026,0.41090610203333194
1782891396978580200,5.554580322265625,1.8714649032533168,0.7905489046663046,0.35609880890566853
1782891396988602000,5.56460205078125,2.147683060312271,0.592144931910932,0.2807879491925239
1782891396998624000,5.5746240234375,2.260336795067787,0.4031520538404584,0.29361992170419543
1782891397008646100,5.584646240234375,2.406334581020474,0.24614333679080008,0.31420703838728364
1782891397018668300,5.594668212890625,2.5641578293234106,0.16043927602022887,0.3222952139053494
1782891397028690200,5.604690185546875,2.6295214051157236,0.10788140578716993,0.24023338209465145
1782891397038712300,5.61471240234375,2.6221862399220464,0.07718611553311347,0.08445544894896446
1782891397048734200,5.624734130859375,2.544989018473029,0.11254822855442762,-0.007296952075138688
1782891397058756000,5.634756103515625,2.369389290460944,0.16124942335933445,-0.04472096606232226
1782891397068778200,5.6447783203125,2.1125953803181647,0.21371552365571259,0.02757825421206653
1782891397078800100,5.654800048828125,1.8554840747892856,0.27618454705029727,0.17355214783251285
1782891397088822000,5.664822021484375,1.6958195825338362,0.3636562020152807,0.3423254273580387
1782891397098844400,5.674844482421875,1.6408838772535324,0.407395682759583,0.5230114091258495
1782891397108865300,5.684865234375,1.5502444059073923,0.3789709677860141,0.643763621597737
1782891397118887200,5.69488720703125,1.4106161549866199,0.3221057557478547,0.7685976965557784
1782891397128909000,5.704908935546875,1.2755348998457192,0.2689437821418047,0.9065606446128338
1782891397138931200,5.71493115234375,1.0836211658924817,0.1282128306761384,1.0401518803916872
1782891397148953000,5.724953125,0.7973848881661891,-0.027642332424223422,1.1516453391961752
1782891397158975200,5.734975341796875,0.4686714047163725,-0.20843466064333915,1.2270888488456606
1782891397168997400,5.744997314453125,0.07296411392390728,-0.43648441459983583,1.3010343750223516
1782891397179019300,5.755019287109375,-0.2953863833874464,-0.648807607114315,1.3927619338661432
1782891397189041200,5.765041259765625,-0.6068664079636334,-0.8821680346995592,1.5210710645236074
1782891397199063300,5.775063232421875,-0.8394324703007936,-1.1480594435334206,1.6780911797501146
1782891397209085200,5.785085205078125,-0.9176526050567626,-1.2914619522958992,1.7716436159335076
1782891397219107000,5.795107177734375,-0.9471721295297145,-1.3136203003510831,1.841877866502106
1782891397229129200,5.805129150390625,-1.0047212321788073,-1.3077882331967352,2.0205137473396957
1782891397239151400,5.8151513671875,-1.191985094499588,-1.3400810217753052,2.3714279566816985
1782891397249173200,5.82517333984375,-1.4019517870157956,-1.3521952379390596,2.806637967431545
1782891397259194000,5.835194091796875,-1.591972839090228,-1.280041271354258,3.2512729552611708
1782891397269216300,5.84521630859375,-1.7180600559145212,-1.147390750491619,3.481048802357912
1782891397279238100,5.855238037109375,-1.7688094154208898,-0.9344009107619523,3.415165878866613
1782891397289260000,5.865260009765625,-1.7277683799803256,-0.7096914071440696,3.1513115288183093
1782891397299282400,5.875282470703125,-1.7419652476370333,-0.6324541459456086,2.7255583515912294
1782891397309304300,5.88530419921875,-1.8279735520511864,-0.7280348730862141,2.3456493723027405
1782891397319326200,5.895326171875,-1.9077438388586043,-0.761963153912127,1.9850304921567439
1782891397329348000,5.90534814453125,-1.9395050047785043,-0.791756526890397,1.6902075878709553
1782891397339370200,5.915370361328125,-2.014388104066253,-0.7672866870224475,1.504692322783172
1782891397349392100,5.92539208984375,-2.097021963611245,-0.711551940318942,1.4337414483778177
1782891397359414000,5.9354140625,-2.143349999544024,-0.6459338052436709,1.685217232237756
1782891397369436200,5.945436279296875,-2.041274941948056,-0.752979344728589,2.297043600696325
1782891397379458300,5.955458251953125,-1.7143080099046228,-0.8089572525382042,2.896523990061879
1782891397389479200,5.965479248046875,-1.3632657902687788,-0.8757812562718987,3.3571564652293917
1782891397399501000,5.9755009765625,-1.1400544162541628,-1.0365975489109753,3.6913381509572267
1782891397409523200,5.985523193359375,-0.7915279788315296,-0.9149702341049909,3.5624551659345625
1782891397419545000,5.995545166015625,-0.3891705825001001,-0.5680670139700174,3.1474031232029196
1782891397429567000,6.00556689453125,-0.08427052083611487,-0.3074643591940403,2.779989029958844
1782891397439589400,6.01558935546875,0.04711071074306965,-0.0009025017976760864,2.4752868289545176
1782891397449611500,6.025611572265625,0.015474632507562636,0.3030602790161967,2.278653811394423
1782891397459633400,6.03563330078125,-0.25498189228475093,0.6463362485647202,2.1948620139859614
1782891397469655300,6.0456552734375,-0.6688380032300949,1.0949965463876723,2.0950639614112676
1782891397479677400,6.055677490234375,-1.0868033030599356,1.5307497241035104,2.1144053523495794
1782891397489699300,6.06569921875,-1.381656017962098,1.8508575840324162,2.4031658878564834
1782891397499721200,6.07572119140625,-1.5098796622931956,2.1645921095371246,2.8082170533165334
1782891397509743000,6.0857431640625,-1.4907172811836003,2.436324353353679,3.253499399138987
1782891397519765500,6.095765625,-1.258192719900608,2.639910989443958,3.669723700520396
1782891397529786400,6.105786376953125,-0.8220324226886033,2.805272524297237,3.956083896887302
1782891397539808300,6.115808349609375,-0.28447277518510816,2.8435300664991137,4.073865057659149
1782891397549830400,6.125830322265625,0.2665489959597587,2.734453313447535,4.055918189819157
1782891397559852300,6.135852294921875,0.6941501391410827,2.610383573925495,3.8837002131998535
1782891397569874200,6.145874267578125,0.8028869927138089,2.4424910592898725,3.6701229289710517
1782891397579896300,6.155896240234375,0.6545709929466247,2.28095755829215,3.3954961327567696
1782891397589918500,6.16591845703125,0.2655178993463516,2.1685846863046288,3.0543250265330073
1782891397599940400,6.1759404296875,-0.20500410167276858,2.1485294480085373,2.709678645414114
1782891397609962200,6.185962158203125,-0.6289040522485971,2.2531743560925124,2.5124077683418986
1782891397619984400,6.195984375,-1.076584106862545,2.3971377136081458,2.3732582408487795
1782891397630006300,6.20600634765625,-1.514587986114621,2.5708108574718236,2.231336326032877
1782891397640028200,6.216028076171875,-1.8635569066077469,2.797253468492627,2.1200532951086757
1782891397650050300,6.22605029296875,-2.0332991407632828,3.005149784475565,2.0481440970651805
1782891397660072400,6.236072509765625,-2.09850548016727,3.2402047410190105,1.9361988028399646
1782891397670093300,6.24609326171875,-1.985962804570794,3.44363998593986,1.8228864580452442
1782891397680115200,6.256115234375,-1.8028297584444284,3.5469220812380313,1.7117529185943305
1782891397690137300,6.266137451171875,-1.506730842873454,3.592187748636305,1.5735909408338367
1782891397700159200,6.2761591796875,-1.129656356358528,3.532037815839052,1.4365176350928843
1782891397710181000,6.28618115234375,-0.7091799504905939,3.396015188194811,1.25602531273365
1782891397720203500,6.29620361328125,-0.29459377170503137,3.1429405908361074,1.0603292837627232
1782891397730225400,6.306225341796875,0.07315642162561416,2.855762356084585,0.8724690629839896
1782891397740247300,6.316247314453125,0.3282867824703455,2.5767192047327754,0.6585657616712153
1782891397750269400,6.32626953125,0.4802279869973659,2.3111472371116277,0.3649735682241618
1782891397760291300,6.336291259765625,0.5240870024681091,2.0810896504640577,0.058062312868237494
1782891397770313200,6.346313232421875,0.4519610929340124,1.7880562599435448,-0.1809190233387053
1782891397780335400,6.35633544921875,0.3386737364500761,1.4674153160512446,-0.34422099531367417
1782891397790357200,6.366357177734375,0.2260521503984928,1.1530875008285044,-0.44256081190407276
1782891397800379400,6.37637939453125,0.22308044111132622,0.9223281956523657,-0.4898818043969571
1782891397810400300,6.386400146484375,0.3092103260785341,0.8148018869131803,-0.5071915433771907
1782891397820422400,6.39642236328125,0.4162421292990446,0.7713365469351411,-0.4969511582612991
1782891397830444300,6.4064443359375,0.492643231934309,0.7725204960227012,-0.42384032934308047
1782891397840466200,6.416466064453125,0.4934206460475921,0.79342942853868,-0.3951498030401766
1782891397850488300,6.42648828125,0.3977466876655817,0.8322723694130778,-0.37403073490485544
1782891397860510500,6.436510498046875,0.2168365782856941,0.7958543175980448,-0.3409374435983598
1782891397870532400,6.446532470703125,0.06261047769188881,0.7817068420410156,-0.37027971180826424
1782891397880554500,6.456554443359375,-0.03676701138317585,0.7747554154679178,-0.402337814848125
1782891397890576400,6.466576416015625,-0.1137146419852972,0.6613470629528164,-0.35877895136773585
1782891397900598300,6.476598388671875,-0.1019675055682659,0.4996186239048838,-0.258595260476321
1782891397910620200,6.4866201171875,-0.0016255553752183914,0.15962065311372278,-0.04122282174825668
1782891397920642300,6.496642333984375,0.2323661558508873,-0.3216898684233427,0.2824044444784522
1782891397930664200,6.506664306640625,0.6423655913680791,-0.6182520175918936,0.28150822629109024
1782891397940685300,6.516685302734375,1.0705740527927874,-0.6533417434126139,0.03025843320675194
1782891397950707500,6.52670751953125,1.4160177217692136,-0.7516551103875041,-0.34307182527855035
1782891397960729300,6.536729248046875,1.604822968313098,-0.9334867185264826,-0.7297425537869334
1782891397970751200,6.546751220703125,1.7018612007856369,-1.0604188617423176,-1.0463022927802055
1782891397980773000,6.556773193359375,1.5539724865198135,-1.055681311826408,-1.2768439366176723
1782891397990795300,6.566795166015625,1.0771651216208935,-0.846082283578813,-1.361275493234396
1782891398000817400,6.5768173828125,0.301791574254632,-0.4797311433911323,-1.2243325358748436
1782891398010839300,6.58683935546875,-0.5061193841010332,-0.08815057713985443,-0.8651285640280694
1782891398020861400,6.596861328125,-1.1931968083769082,0.20176117422878742,-0.4132779457312077
1782891398030883300,6.60688330078125,-1.7061083368360994,0.4949480017453432,0.058730878045875574
1782891398040905200,6.6169052734375,-1.9409978736847637,0.6963222224831581,0.5946666689408943
1782891398050927400,6.62692724609375,-1.9484715705662965,0.7915116122186183,1.0754959462996572
1782891398060949200,6.63694921875,-1.70892339425683,0.8341136133655905,1.4104146410651504
1782891398070971100,6.64697119140625,-1.3446306479036807,0.7995891202121973,1.5676828858338296
1782891398080992300,6.6569921875,-0.991577088445425,0.5819003090113402,1.6169402532167731
1782891398091014400,6.667014404296875,-0.7333639591544866,0.28331191471219064,1.5439436983279884
1782891398101036300,6.677036376953125,-0.5227770889133214,-0.029128479328751563,1.4399058162264524
1782891398111058200,6.68705810546875,-0.42598435563445086,-0.30979397118538615,1.3316641988247633
1782891398121080300,6.697080322265625,-0.3449456563264131,-0.49732466774880885,1.2113516198791563
1782891398131102200,6.707102294921875,-0.29361352849602695,-0.5823915996596217,1.1373200959194452
1782891398141124400,6.717124267578125,-0.3161164522051811,-0.586233077518642,1.1411096243955194
1782891398151146500,6.727146484375,-0.48530046795606613,-0.5175090853825212,1.2139959238428621
1782891398161168400,6.73716845703125,-0.7345236505836248,-0.398758787317574,1.2677956838957964
1782891398171190300,6.747190185546875,-0.9865700739383697,-0.26183073526620865,1.2750649442464113
1782891398181212400,6.75721240234375,-1.1285305671989918,-0.15468027410209179,1.2302516967907546
1782891398191234300,6.767234375,-1.1458452746152876,-0.1452986977726221,1.104215260305628
1782891398201256200,6.777256103515625,-1.0139619387328624,-0.13277882341742514,0.9171383719243109
1782891398211278300,6.7872783203125,-0.7904039432376623,-0.12404577412456273,0.7511389775589108
1782891398221299500,6.797299560546875,-0.5283218635588884,-0.0793459239155054,0.6413496923238039
1782891398231321300,6.8073212890625,-0.32693361429572104,0.0037330490484833714,0.520656260834448
1782891398241343200,6.81734326171875,-0.1866290715485811,0.07956132023185492,0.465881335606426
1782891398251365400,6.827365478515625,-0.10846738898158073,0.1373833946034312,0.4395126033145934
1782891398261387300,6.83738720703125,-0.05835866546630859,0.1782674859166145,0.45629546887651085
1782891398271409200,6.8474091796875,0.0005365910947322845,0.17650895181149243,0.5295557162027805
1782891398281431600,6.857431640625,0.04998246678709983,0.13732786502391098,0.5467867639236151
1782891398291453400,6.867453369140625,0.13921499394476414,0.0421937126070261,0.5197759343359619
1782891398301475300,6.877475341796875,0.23769173478782177,-0.10428513486087322,0.4103659307420254
1782891398311497200,6.887497314453125,0.39522155310213564,-0.25529168888628484,0.3100086733819917
1782891398321519400,6.897519287109375,0.593810527035594,-0.3882409004345536,0.2104163359798491
1782891398331541200,6.907541259765625,0.8090951997041702,-0.4931938515543937,0.1147266320394352
1782891398341563100,6.917563232421875,0.9432610935658216,-0.5447834612771868,0.037543868374032896
1782891398351584500,6.92758447265625,0.9324626361757516,-0.6123796184271574,0.04314550147310365
1782891398361606400,6.9376064453125,0.7550649188309907,-0.6956108593434095,0.07284054234316573
1782891398371628300,6.947628173828125,0.5410743776261806,-0.7092965626075863,0.12283104630624875
1782891398381650200,6.957650146484375,0.3010036387473345,-0.7220429391950368,0.2598246561408043
1782891398391672300,6.96767236328125,0.08525602474212646,-0.6773895584762096,0.35836847087070345
1782891398401694200,6.977694091796875,-0.04973404498398304,-0.5941998186141252,0.39351836591344325
1782891398411716000,6.987716064453125,-0.15330664766132832,-0.5378098228722811,0.3961198901813477
1782891398421738500,6.997738525390625,-0.2757826882511377,-0.44680882473737,0.3618823607431724
1782891398431760400,7.007760498046875,-0.44636137323081493,-0.3338207434609532,0.31346615689210594
1782891398441782500,7.017782470703125,-0.6500654982209205,-0.28133330811560153,0.2979728379503824
1782891398451804400,7.027804443359375,-0.9401952762544155,-0.3931663741379976,0.43904158826936035
1782891398461826600,7.03782666015625,-1.2531652471274137,-0.6679986297965049,0.7402024268724023
1782891398471848400,7.047848388671875,-1.472192613455653,-1.0115537085473536,1.0653930699583143
1782891398481870300,7.057870361328125,-1.5334610288888215,-1.2539786093369125,1.3251561321049927
1782891398491891500,7.067891357421875,-1.394839909183979,-1.3401505798801778,1.4383007191173731
1782891398501913600,7.07791357421875,-1.0549860230386257,-1.1440177669271827,1.218255919374898
1782891398511935500,7.087935546875,-0.722527507841587,-0.8775497272491455,0.8332241902451962
1782891398521957400,7.097957275390625,-0.485854594707489,-0.814916160942614,0.5041561942692846
1782891398531979500,7.1079794921875,-0.3515045764505863,-0.8744070453092455,0.13674276774548924
1782891398542001400,7.11800146484375,-0.36559330755770203,-0.9371227369412779,-0.2527338941622525
1782891398552023300,7.128023193359375,-0.457818002268672,-0.9805962602257728,-0.48564347270745784
1782891398562045400,7.13804541015625,-0.5999439152240753,-0.9038836074233054,-0.505013760946691
1782891398572067600,7.148067626953125,-0.7443027017980813,-0.6392144338607788,-0.2981372712644748
1782891398582089500,7.15808935546875,-0.8658253871858119,-0.2105164353534579,0.06104902792829089
1782891398592111400,7.168111328125,-0.9405477429538964,0.16074556549042462,0.5449541416689753
1782891398602133500,7.178133544921875,-1.0044856698572635,0.43794747288972136,0.9540092820733785
1782891398612155400,7.1881552734375,-0.9762702137202024,0.6397621308714151,1.2692616647951305
1782891398622176500,7.198176513671875,-0.9078115945219993,0.7795981793239712,1.548176659722626
1782891398632198400,7.208198486328125,-0.7174135258287191,0.8384677169218658,1.787567015121877
1782891398642220500,7.218220458984375,-0.32021336612999435,0.8841939875692129,1.970980924016237
1782891398652242400,7.228242431640625,0.26366379591226574,0.8900225475922227,2.117510917149484
1782891398662264300,7.238264404296875,0.9244318899333477,0.8774562037467956,2.173576064851135
1782891398672286500,7.248286376953125,1.4404945758998393,0.8559311851590872,2.1388889284819363
1782891398682308400,7.258308349609375,1.8675234721511602,0.7953899149566889,2.0493691088154913
1782891398692330200,7.268330322265625,2.1761837631314993,0.7667740613251924,1.9607344014205037
1782891398702352600,7.2783525390625,2.3768016125440594,0.7327087101161479,1.8601202101573346
1782891398712374500,7.28837451171875,2.365366610816121,0.6725581927970051,1.7734442356146871
1782891398722396400,7.298396484375,2.188451708552241,0.6237208043918013,1.706339661373943
1782891398732418600,7.30841845703125,1.8770634539127349,0.5819149220585823,1.620324488827586
1782891398742440400,7.3184404296875,1.4715683440774678,0.549949173477292,1.583430928455293
1782891398752462300,7.32846240234375,1.1099509544134138,0.5595636817798018,1.526650764352083
1782891398762483500,7.3384833984375,0.862940187138319,0.5853922427803278,1.507874167689681
1782891398772505600,7.348505615234375,0.7138719076991081,0.628544279025495,1.469080765045434
1782891398782527500,7.358527587890625,0.7232873862981796,0.6928130453184247,1.4135779274016618
1782891398792549400,7.36854931640625,0.8148813818901777,0.7398451378673314,1.3271090197384356
1782891398802571500,7.378571533203125,0.9683364981114864,0.7632055551886558,1.2476966064579784
1782891398812593400,7.388593505859375,1.1509294460117816,0.7820897038787603,1.1927932690773158
1782891398822615300,7.398615234375,1.3592606462806462,0.7783902648389339,1.093490598804131
1782891398832637400,7.408637451171875,1.5257161138504742,0.782429603357613,1.050831460642442
1782891398842659600,7.41865966796875,1.6044915444016457,0.7595601844236254,1.005635789740458
1782891398852681500,7.428681396484375,1.5927964304327964,0.6742898388952017,1.0188150778524576
1782891398862703600,7.43870361328125,1.5216016642689705,0.5291925089135766,0.9633525722190737
1782891398872725500,7.4487255859375,1.3883598995149136,0.4160919071733951,0.8846503530345856
1782891398882747400,7.458747314453125,1.3133271626234053,0.29068682739436624,0.7908971335820854
1782891398892768300,7.468768310546875,1.2056038700073957,0.2010124016880989,0.6557412788350134
1782891398902790700,7.478790771484375,1.110877421608567,0.10625526589006185,0.43648751987237483
1782891398912812500,7.4888125,1.048929791739583,0.019346797765791415,0.2440587856017053
1782891398922834400,7.49883447265625,1.006871688210964,-0.012287526904046536,0.09749830599864945
1782891398932856600,7.508856689453125,0.9341092343389987,-0.019931319655478,-0.03263171994304284
1782891398942878500,7.51887841796875,0.8033575328350067,-0.00032587095350027084,-0.1400850547775626
1782891398952900400,7.528900390625,0.6180027190059423,0.012562544453144073,-0.24977736417790875
1782891398962922200,7.538922119140625,0.41162674445807934,0.025961247469484805,-0.32701742012165486
1782891398972944400,7.5489443359375,0.20600889480113982,0.01600859325379133,-0.37008250873573123
1782891398982966500,7.558966552734375,0.027478958556056022,0.016787468671798707,-0.40509054762236774
1782891398992988400,7.568988525390625,-0.13365385268628596,-0.040397769100964064,-0.4175063040159642
1782891399003010600,7.579010498046875,-0.3321773601680994,-0.1238876609534025,-0.4565784505363554
1782891399013032400,7.589032470703125,-0.50371933722198,-0.14331220013052223,-0.5307186955675482
1782891399023054300,7.599054443359375,-0.6721890672236681,-0.1570642466291785,-0.6312666166614741
1782891399033075500,7.609075439453125,-0.9217968652546406,-0.19288053315877912,-0.6997153720527887
1782891399043097600,7.61909765625,-1.2476035213470458,-0.2458667118065059,-0.7984979639746248
1782891399053119500,7.629119384765625,-1.5778350081443786,-0.3486515251070261,-0.8862740087136626
1782891399063141400,7.639141357421875,-1.8825158740997314,-0.6874984261669218,-0.655993426965177
1782891399073163500,7.64916357421875,-2.112907515007257,-1.1480715723626316,-0.27697379773184655
1782891399083185400,7.659185302734375,-2.090084857824445,-1.4811537724159658,-0.10630385427214205
1782891399093207300,7.669207275390625,-1.8792279384702444,-1.4495187170937656,-0.3696989162456244
1782891399103229400,7.6792294921875,-1.6665069788098335,-1.226387860969454,-0.8754064316101372
1782891399113251300,7.689251220703125,-1.4612129542797803,-0.9745331607945262,-1.3501435661062597
1782891399123273500,7.6992734375,-1.2845493964284658,-0.6340244640022515,-1.816506401619315
1782891399133295600,7.709295654296875,-1.2252794613361357,-0.24397256862297653,-2.216831999862194
1782891399143317500,7.7193173828125,-1.3683634056687355,0.12845423821657895,-2.477053546366095
1782891399153339400,7.72933935546875,-1.6719132217675448,0.5173315368585288,-2.5927248753771184
1782891399163361500,7.739361572265625,-2.0649901640564203,0.8360553950831293,-2.531914725105464
1782891399173382400,7.74938232421875,-2.441404140836,1.0569878643803299,-2.4357692036889493
1782891399183404500,7.759404541015625,-2.686408828985691,1.2307551162682473,-2.35466284597218
1782891399193426400,7.769426513671875,-2.8056244064748284,1.2985381742924451,-2.2628283196225762
1782891399203448600,7.779448486328125,-2.818941568687558,1.2380762529365719,-2.1108502902165056
1782891399213470500,7.789470458984375,-2.540539053326845,1.119686458747089,-1.9434961202412842
1782891399223492400,7.799492431640625,-1.8502812454491853,0.9426296637944876,-1.6784627895414828
1782891399233514500,7.809514404296875,-1.1664034939974546,0.750094144681096,-1.4085592224568129
1782891399243536400,7.819536376953125,-0.2916045267611742,0.6884606953278184,-1.36505384272933
1782891399253558300,7.829558349609375,0.6360381419122219,0.6659409666143358,-1.4545781924404204
1782891399263580700,7.83958056640625,1.394996561050415,0.5616990863732993,-1.4610358441472053
1782891399273602600,7.8496025390625,1.9290455700844524,0.3002135112829506,-1.4997076662383972
1782891399283624400,7.85962451171875,2.13159000364542,0.06076864921748638,-1.6727026185795664
1782891399293646300,7.869646240234375,2.04997730384171,-0.15059388157129286,-1.9722928833976388
1782891399303667500,7.87966748046875,1.8112258308678864,-0.2298901211261749,-2.3059727570831776
1782891399313689300,7.889689453125,1.4765689288437365,-0.16621581359505652,-2.615454593579471
1782891399323711500,7.89971142578125,1.0722077914744614,-0.059143093842267985,-2.7333997127413747
1782891399333733600,7.909733642578125,0.6504986289411783,0.13585530825331807,-2.7297975965961814
1782891399343755500,7.919755615234375,0.29178865115642544,0.35647637351378797,-2.611039992007613
1782891399353777400,7.92977734375,0.09333119464814663,0.5212311746455729,-2.4466360501401123
1782891399363799600,7.939799560546875,0.07825345250368118,0.6911410204529762,-2.204711353957653
1782891399373821400,7.949821533203125,0.2580903796941042,0.8300507478408515,-1.9214122987270355
1782891399383843300,7.95984326171875,0.6033908408075571,0.9323886941567063,-1.629302452792227
1782891399393865500,7.969865478515625,1.0177566548407078,0.9765658356659114,-1.3385237093307076
1782891399403887600,7.9798876953125,1.3999492150217294,0.9758677703991532,-1.0872329997140913
1782891399413909500,7.989909423828125,1.7005974644601345,0.9527977143265306,-0.8708905616208911
1782891399423931400,7.999931396484375,1.9498416898757218,0.8656751650601625,-0.674510715104267
1782891399433952500,8.009952392578125,2.1403227606773374,0.7573354941114783,-0.534690667938441
1782891399443974400,8.019974365234376,2.3024235401690003,0.6715225661389529,-0.43867293762005866
1782891399453996500,8.02999658203125,2.447533437371254,0.5862780857041477,-0.31871706315763293
1782891399464018400,8.040018310546875,2.5284628310859203,0.46449923359826206,-0.13124766832739115
1782891399474040600,8.05004052734375,2.5406132876068352,0.3079856065891683,0.07958265528082847
1782891399484062500,8.0600625,2.4336697471916673,0.16088497396111487,0.25473639309108254
1782891399494084400,8.07008447265625,2.2275199826151133,-0.06321019715070725,0.38415282740332185
1782891399504106500,8.0801064453125,1.9608511596679685,-0.27140505768880246,0.45050877523384986
1782891399514128400,8.09012841796875,1.7550497701376675,-0.41337899495288727,0.42791283947899933
1782891399524150300,8.100150390625,1.5735703364372253,-0.5341276272282004,0.30600553868785496
1782891399534172400,8.11017236328125,1.4219821831315755,-0.6297001710623502,0.06798924812078476
1782891399544194600,8.120194580078126,1.3114970245867967,-0.6702656979456544,-0.3068132018089294
1782891399554216400,8.130216552734375,1.1610247235685587,-0.6933870458140969,-0.6867357712313532
1782891399564237300,8.1402373046875,0.9881780936568975,-0.7563768782123923,-1.0155509614899754
1782891399574259500,8.150259521484376,0.8064134132742882,-0.7967319772154092,-1.2856138107895851
1782891399584281300,8.16028125,0.6062462302386761,-0.8659089738160372,-1.3430821032874285
1782891399594303500,8.170303466796875,0.388521763202548,-0.9227895295538008,-1.2360102603174745
1782891399604325600,8.18032568359375,0.17582710702717302,-0.8465763507060706,-1.1974983049631118
1782891399614347500,8.190347412109375,-0.16717033784091473,-0.6483532874755561,-1.2593730157263576
1782891399624369400,8.200369384765626,-0.6081681382119655,-0.4401707018971443,-1.2854310015685855
1782891399634391600,8.2103916015625,-1.142955982914567,-0.2580142457179725,-1.2336445540994405
1782891399644413400,8.220413330078125,-1.8375462670385836,-0.23604513662457466,-1.0376567025750876
1782891399654435300,8.230435302734374,-2.654065479263663,-0.5491137455664574,-0.6123277421094477
1782891399664457500,8.24045751953125,-3.3288281963676214,-0.9507932426363229,-0.3018032646924257
1782891399674479400,8.250479248046876,-3.3686791452407836,-0.9899566476367413,-0.2760039297863841
1782891399684501500,8.26050146484375,-2.8455951823353764,-0.8581267955072224,-0.30647169489488
1782891399694522400,8.2705224609375,-2.2468571357697247,-0.597480739980936,-0.5558265410780906
1782891399704544500,8.28054443359375,-1.547929114702344,-0.2616825589671731,-0.8087360110029578
1782891399714566400,8.29056640625,-1.0312690473645925,-0.09657003043889999,-0.8742822498857975
1782891399724588300,8.30058837890625,-0.7446236043155193,0.032006080591678615,-1.054517236483097
1782891399734610400,8.3106103515625,-0.7294844873726367,0.2253245667763054,-1.4535070560775696
1782891399744632600,8.320632568359375,-0.8411883740574121,0.6297431334212422,-1.8244471314907074
1782891399754654500,8.330654541015624,-0.9608668928831815,1.0615209777653216,-1.8700629275009035
1782891399764676600,8.340676513671875,-1.1090507907032965,1.3811536213979123,-1.5459595681950449
1782891399774698500,8.350698486328126,-1.2946639632076025,1.5897585240416228,-1.024696829367429
1782891399784720400,8.360720458984375,-1.4598264683574438,1.6985117442272601,-0.54301981260553
1782891399794742300,8.3707421875,-1.5493857432514428,1.5047788320228457,0.09010039603337645
1782891399804764400,8.380764404296874,-1.459784967303276,1.2691153881922363,0.8458340079061687
1782891399814786600,8.39078662109375,-1.3068231875568628,0.916567951625213,1.5027026102706789
1782891399824808400,8.400808349609376,-1.165738892608881,0.5567451172277331,1.9477029242813586
1782891399834829600,8.41082958984375,-0.9823726222485303,0.2634662275135517,2.123731545230001
1782891399844851500,8.4208515625,-0.8352391102641821,-0.014544438985362649,1.9411375744163988
1782891399854873300,8.430873291015626,-0.7037251922160387,-0.36882030678018923,1.764497835832089
1782891399864895200,8.440895263671875,-0.7583294735848903,-0.7018733538042754,1.524868995501846
1782891399874917600,8.450917724609376,-0.8836001133292913,-0.9337025532342493,1.2453406909815967
1782891399884939500,8.460939453125,-1.0080360558152197,-1.0449849996365606,1.1013710498556495
1782891399894961400,8.47096142578125,-1.1209364588081836,-1.025923667748645,1.1011813725024462
1782891399904983600,8.480983642578124,-1.2433832733035086,-0.7888613899707794,1.1638368583798409
1782891399915005400,8.49100537109375,-1.3348363991200922,-0.4205675182174891,1.354363814149797
1782891399925027300,8.50102734375,-1.363181619116664,-0.05540164229162037,1.6362987414203582
1782891399935049500,8.511049560546875,-1.3686433916538954,0.20874526096247134,1.94276751370579
1782891399945071400,8.5210712890625,-1.3175532558858394,0.38337592474669213,2.2573173011161387
1782891399955093500,8.531093505859374,-1.2242431040257216,0.4796897154022008,2.514444242605567
1782891399965114400,8.5411142578125,-1.10846626881361,0.515013030783087,2.8285990393489597
1782891399975136500,8.551136474609375,-0.9514484916746616,0.5012396492354572,3.0884190193146464
1782891399985158400,8.561158447265624,-0.6962333751559258,0.48246962844431396,3.2271120352119205
1782891399995180300,8.57118017578125,-0.3457522965341806,0.503096529148519,3.3354216032832857
1782891400005202400,8.581202392578126,0.1372340492606163,0.484645072787255,3.252518279147148
1782891400015224600,8.591224609375,0.5840320603430271,0.2621753109201789,3.2567993174672125
1782891400025246500,8.60124658203125,0.9028408203721046,0.12172376091778278,3.12196414604187
1782891400035268600,8.6112685546875,1.140928276479244,0.007228051557391882,2.9743858128994702
1782891400045290500,8.62129052734375,1.296091365662217,-0.027566052317619324,2.6396780574709173
1782891400055312400,8.6313125,1.2818605957359075,-0.2145094505123794,2.3255425499498843
1782891400065334500,8.64133447265625,1.0980325530827044,-0.27090207660272714,1.926265583977103
1782891400075356400,8.6513564453125,0.8240221352010965,-0.20163710945770144,1.4717005921550095
1782891400085378300,8.66137841796875,0.5843155534595251,-0.17134192443713545,1.1848358803320675
1782891400095400400,8.671400390625,0.46981005335748194,-0.12337225877717137,1.0300041419953108
1782891400105421600,8.681421630859376,0.43851767399311065,-0.04064502186030149,0.9925450566947459
1782891400115443500,8.691443359375,0.5090156900644303,0.047829380406439304,1.0283905693188309
1782891400125465300,8.70146533203125,0.645747050499916,0.09607099487558007,1.0430076351489872
1782891400135487500,8.711487548828124,0.7404793441176414,0.09939414794892072,1.048732661732286
1782891400145509400,8.72150927734375,0.8255687801212072,0.07775412467941642,1.066549108125642
1782891400155531500,8.731531494140626,0.9359329426348209,0.07585457466840743,1.0386253284115343
1782891400165553700,8.7415537109375,1.068234211668372,0.08810483830198645,0.9830005448885262
1782891400175575600,8.751575439453125,1.2201350841850043,0.14020488176494836,0.8534636990670115
1782891400185597400,8.761597412109374,1.3209049044013021,0.20155629930645227,0.7273672029577195
1782891400195619300,8.771619384765625,1.4003729933917521,0.17602248346880078,0.6016553953170776
1782891400205641500,8.781641357421876,1.5012953738212584,0.20310747427120804,0.48387284630574284
1782891400215663400,8.791663330078125,1.5764830090135336,0.1735080164298415,0.39378589427582916
1782891400225685200,8.801685302734375,1.5129349582105873,0.10917904438227415,0.19223178692646323
1782891400235706600,8.81170654296875,1.3454922331690788,0.11168503585383295,-0.042028585173189636
1782891400245728500,8.821728515625,1.0241016399532556,0.14154226784855126,-0.2691726955268532
1782891400255750400,8.83175048828125,0.5907599072933196,0.19224895725697277,-0.44864882658086713
1782891400265772300,8.841772216796874,0.030029812082648277,0.09017302287817001,-0.40402153015136716
1782891400275794400,8.85179443359375,-0.4664262561380863,-0.28331673701778054,-0.06861819367408752
1782891400285816300,8.86181640625,-0.6532271771222352,-0.45113735546097156,-0.008375321896374225
1782891400295838500,8.87183837890625,-0.7157815407127142,-0.2980909661710262,-0.3673259765692055
1782891400305860600,8.881860595703126,-0.8959270954608917,-0.1162077739752829,-0.7989411776974796
1782891400315882500,8.891882568359375,-1.150720187175274,0.005850479593873023,-1.0953903680108488
1782891400325904400,8.901904296875,-1.3933242439240217,0.16208397448733447,-1.2474946541450918
1782891400335926500,8.911926513671874,-1.6590005487024784,0.36683424752950666,-1.3303348499171435
1782891400345948400,8.921948486328125,-1.9735113192766904,0.6081077863268554,-1.3761192804925142
1782891400355970300,8.93197021484375,-2.3643916283041237,0.8978300064727663,-1.341047528719902
1782891400365991400,8.941991455078124,-2.6691262702733276,1.236650165656209,-1.158263442161679
1782891400376013600,8.952013671875,-2.825715008345246,1.4575231598511338,-0.7891995358839631
1782891400386035500,8.962035400390626,-2.8049977990090844,1.4907769024163484,-0.30158684546276926
1782891400396057300,8.972057373046875,-2.793120314210653,1.3842612320244312,0.13660320401117204
1782891400406079500,8.98207958984375,-2.4822400090932843,1.2624753656558692,0.48864802481830116
1782891400416101400,8.992101318359374,-1.7211702968895435,1.1221323905944824,0.7365076640076935
1782891400426123300,9.002123291015625,-0.7390051799118519,0.9741806940950453,0.8586179400250316
1782891400436145700,9.012145751953126,0.1434475169479847,0.8149208371177316,0.8989838526830076
1782891400446166800,9.022166748046875,0.7829355070531367,0.6502085599534213,0.8491055769227445
1782891400456188700,9.032188720703125,1.1592086140573024,0.44921194035634393,0.7927195267036556
1782891400466210600,9.04221044921875,1.3096452592402696,0.19917495712786912,0.8094336378782987
1782891400476232700,9.052232666015625,1.241073827317357,-0.05727379283905029,0.878248961559683
1782891400486254600,9.062254638671876,1.079900099542737,-0.2514353057190776,0.9301536285810172
1782891400496275700,9.072275634765624,0.9618108957350253,-0.3735688164815306,0.9757591954581439
1782891400506297600,9.082297607421875,0.9015484424740076,-0.4316768681876361,1.0358525026973335
1782891400516319700,9.09231982421875,0.8286375200420617,-0.4198400076605379,1.1427299190737306
1782891400526341600,9.102341552734375,0.7787111673563718,-0.3594365384936333,1.2682736766710876
1782891400536363500,9.112363525390625,0.7156646363347768,-0.295940071747452,1.3206294484607874
1782891400546385700,9.1223857421875,0.7205705285549163,-0.20597806127145885,1.3534686188757419
1782891400556407800,9.13240771484375,0.8647247324675321,-0.029625469065457582,1.2966088136650622
1782891400566429700,9.1424296875,1.0508610520631074,0.07936959705203771,1.2836696909844874
1782891400576451800,9.152451904296875,1.2324620663166046,0.19035028402879833,1.2156984899770469
1782891400586473700,9.1624736328125,1.2281173151105642,0.2137615547545254,1.0999133983932434
1782891400596495600,9.17249560546875,1.0914654496520757,0.1495288826882839,0.994167397199571
1782891400606517800,9.182517822265625,0.8987310469657183,0.09071092914715409,0.8473261461600661
1782891400616539600,9.19253955078125,0.7129869415581226,0.0651825201369822,0.7132613745853305
1782891400626560800,9.202560791015625,0.5249515103429555,0.027750615104287862,0.6711820821382105
1782891400636582700,9.212582763671875,0.35406127519607544,0.04805968203097582,0.6630896688364446
1782891400646604800,9.222604736328124,0.2935691048324108,0.06209010707959532,0.7067446861676872
1782891400656626700,9.232626708984375,0.3279723096936941,0.02695873407423496,0.8491694359391927
1782891400666648600,9.242648681640626,0.43721068304777144,-0.04378653475642204,0.9463882856756448
1782891400676670700,9.252670654296875,0.5279764111220836,-0.08252002390697598,0.9774062320128083
1782891400686692600,9.262692626953125,0.6140759009510278,-0.17821166407614944,0.9994368620350956
1782891400696714800,9.27271484375,0.6217220317900181,-0.3234086550399661,1.0172472440138458
1782891400706737000,9.28273681640625,0.5669359641134739,-0.459655885220319,1.0238298372745513
1782891400716758800,9.2927587890625,0.4615712173223495,-0.5358826542019843,1.0487408450387419
1782891400726780700,9.30278076171875,0.3642880701780319,-0.6183022864744067,1.088038982334733
1782891400736802800,9.312802734375,0.3713169459015131,-0.6664296269141137,1.1560644708126784
1782891400746824700,9.32282470703125,0.47206981498301026,-0.7360811091586947,1.232276480616629
1782891400756846600,9.3328466796875,0.5292471617102623,-0.7904244015038013,1.2441251777119935
1782891400766867700,9.34286767578125,0.4515075039476156,-0.8502066700324415,1.181415039037913
1782891400776889900,9.352889892578125,0.257723299947381,-0.916989757233858,1.1277794565707444
1782891400786911700,9.362911865234375,0.10179448708891868,-0.9818113351039588,1.1230173567354678
1782891400796933600,9.37293359375,-0.05029693956375122,-1.0447357010506093,1.1476228056818245
1782891400806955800,9.382955810546875,-0.24291151526272295,-1.1117147492155433,1.2255701148457825
1782891400816977700,9.392977783203126,-0.504519547688961,-1.0951043906763196,1.2386081678561867
1782891400826999600,9.40299951171875,-0.8208265540301799,-1.0254645988695323,1.2312646732255816
1782891400837021700,9.413021728515625,-1.1534639329254626,-0.9448330190576613,1.2438871311724184
1782891400847043800,9.4230439453125,-1.5103934570342301,-0.8513516022838652,1.3016716500125824
1782891400857065700,9.433065673828125,-1.9647160184025763,-0.9871379369542002,1.545030762912333
1782891400867087600,9.443087646484376,-2.375783959934115,-1.2636619450919329,1.899902185447514
1782891400877109800,9.45310986328125,-2.409854571840167,-1.4951754296362398,2.2050391246072945
1782891400887131600,9.463131591796875,-2.110576441711187,-1.6577056865863502,2.4578084554091095
1782891400897153500,9.473153564453124,-1.6912468677908181,-1.6474521497279404,2.607409234289825
1782891400907174700,9.483174560546875,-1.3502648543983697,-1.5754041277356445,2.6683970792159437
1782891400917196800,9.49319677734375,-1.1838766068458557,-1.5059892307259142,2.677690100479126
1782891400927218700,9.50321875,-1.3770242665082215,-1.1990865970678626,2.563399996693432
1782891400937240600,9.513240478515625,-2.0102239701241253,-0.6724447955504059,2.3083371481269594
1782891400947262700,9.5232626953125,-2.8081337589472533,0.031768180182576176,2.1637648649327454
1782891400957284600,9.53328466796875,-3.6073277423620222,0.8087509163111448,2.333633940338343
1782891400967306500,9.543306396484375,-4.3380227745682,1.3778950579933822,2.862715828484297
1782891400977329000,9.553328857421874,-4.921830963027477,1.746203323598206,3.4557220533996817
1782891400987350800,9.563350830078125,-5.185382530736923,2.0778411700621247,3.8154581593617793
1782891400997372700,9.57337255859375,-4.958559395965933,2.399131225512922,3.9809681627750395
1782891401007394800,9.583394775390625,-4.206256927585602,2.6450363696336745,3.9499233284309505
1782891401017416700,9.593416748046875,-3.1354116566359993,2.756691741001606,3.716903092585504
1782891401027437600,9.6034375,-2.1036142014831305,2.725374227195978,3.218774122716486
1782891401037459700,9.613459716796875,-1.1956056230843066,2.580726394547522,2.5892607063978907
1782891401047481900,9.62348193359375,-0.3584025192707777,2.358524928227812,1.9826247461892663
1782891401057503700,9.633503662109375,0.4004629608869552,2.1190110925793646,1.4744566128648817
1782891401067525600,9.643525634765625,0.8781576300144195,1.899929950237274,0.9441496399033814
1782891401077547800,9.6535478515625,1.0815163025677204,1.713459284120798,0.4677393845632672
1782891401087569700,9.663569580078125,1.0750836391717196,1.5672897948630153,-0.013776048428751528
1782891401097591600,9.673591552734376,0.9830915841728448,1.4971546207547186,-0.37175877138487995
1782891401107613700,9.68361376953125,0.9695300918102264,1.5138193398296833,-0.6136801065664738
1782891401117635800,9.6936357421875,1.0640133791029454,1.5327363678760826,-0.7479920578353106
1782891401127657700,9.70365771484375,1.2509054855018853,1.5765718563407658,-0.7429413503170013
1782891401137680000,9.713679931640625,1.4772025505721569,1.627748355218023,-0.7010445017646998
1782891401147701800,9.72370166015625,1.713563913539052,1.6331266872555017,-0.6067819810831919
1782891401157722600,9.73372265625,1.9396224936783313,1.574352426725626,-0.5343568694068118
1782891401167744500,9.74374462890625,2.095532017314434,1.518710034480691,-0.46212907040081913
1782891401177767000,9.753766845703124,2.22204301250875,1.4838836357712746,-0.42639852592591193
1782891401187788800,9.763788818359375,2.359881457403302,1.4475491705864667,-0.4337802336750552
1782891401197810700,9.773810791015626,2.525270172524452,1.3934376411706209,-0.43500199402235445
1782891401207832800,9.783832763671874,2.7101158677875996,1.3435565889313816,-0.41347522186897695
1782891401217854700,9.793854736328125,2.8752321957081555,1.2702023066461086,-0.37438042512536046
1782891401227876600,9.803876708984374,2.982791237673163,1.1471227472051977,-0.3079093995478004
1782891401237898500,9.8138984375,3.0159955881386993,0.9726698511406778,-0.22705022152513266
1782891401247920600,9.823920654296876,2.9942379298388957,0.8613590554267168,-0.24711722332425415
1782891401257942800,9.83394287109375,2.857194434714317,0.706162063974142,-0.34657344019133596
1782891401267964700,9.843964599609375,2.5788883654654025,0.6109659522369504,-0.5091024550324306
1782891401277986800,9.85398681640625,2.1952210565567016,0.5984083762198686,-0.6986186628572643
1782891401288007700,9.864007568359375,1.693221967256069,0.5526937960103154,-0.8764306600913405
1782891401298029600,9.874029541015625,1.0954472127646206,0.431534390977025,-0.9690019762828945
1782891401308051700,9.8840517578125,0.545801406148076,0.3600587620452046,-0.9845462399605661
1782891401318073900,9.894073974609375,0.1612842024117708,0.3254439602598548,-0.932628421196714
1782891401328095700,9.904095703125,-0.12488193268775939,0.34791678109169005,-0.824085409695655
1782891401338117600,9.91411767578125,-0.2921229976773262,0.4296756113678217,-0.6620313188899308
1782891401348139800,9.924139892578125,-0.3319289383649826,0.5696721110790968,-0.580774958243221
1782891401358161700,9.93416162109375,-0.22892916713953018,0.6652946315348148,-0.5740399508997798
1782891401368183600,9.94418359375,-0.03229249631762504,0.6731342391192913,-0.6429137267701327
1782891401378205700,9.954205810546876,0.13626140483617782,0.5844315810546279,-0.7759816693272441
1782891401388227600,9.9642275390625,0.16968202840089797,0.42928602752834555,-0.8852686310634017
1782891401398249700,9.974249755859375,0.020229133558273313,0.2624050280228257,-0.9886419848416
1782891401408272000,9.98427197265625,-0.30019290688633915,0.17861439965814352,-1.1058804170388727
1782891401418293800,9.994293701171875,-0.7837620210051536,0.14971476064920425,-1.1580263454701751
1782891401428314600,10.004314697265626,-1.3340291743904351,-0.10614508351385593,-1.0143699350118636
1782891401438336500,10.01433642578125,-1.82515089584589,-0.6479504057630896,-0.6265678643859922
1782891401448358700,10.024358642578125,-1.9524545027226208,-1.0765919979080558,-0.40320137287490065
1782891401458381000,10.034381103515624,-1.7544617411166428,-1.1780471700400112,-0.5665227071374654
1782891401468403000,10.04440283203125,-1.3370312788158654,-1.1879948558196425,-0.8624445856411009
1782891401478424800,10.0544248046875,-0.8299486026406288,-1.1429960226640103,-1.1752275825746357
1782891401488446700,10.06444677734375,-0.43358197115659713,-1.0281997229218482,-1.3686271711714566
1782891401498468900,10.07446875,-0.2104541837722063,-0.8654761353567242,-1.5349574049264192
1782891401508490800,10.08449072265625,-0.30828970410227774,-0.5914227551162242,-1.6826247315265237
1782891401518512600,10.0945126953125,-0.8187795583724975,-0.12561813800781965,-1.7549340348035096
1782891401528534800,10.10453466796875,-1.4705653045147657,0.49489247216582294,-1.6893911569215356
1782891401538557000,10.114556884765625,-2.060008868512511,1.0255822338998317,-1.5506252219185233
1782891401548577800,10.124577880859375,-2.6595482945889235,1.3875843850977718,-1.295655312332511
1782891401558599700,10.134599609375,-3.103009854725003,1.5983216235950588,-1.0424997586920857
1782891401568621800,10.144621826171875,-3.2300732231050726,1.6746368015125392,-0.8265487310692667
1782891401578643700,10.154643798828126,-2.934014055022597,1.7482153940729797,-0.7351528883978724
1782891401588665600,10.16466552734375,-2.1633324648648498,1.8100624861769377,-0.8635086346760392
1782891401598688000,10.17468798828125,-1.0859937402427196,1.7699200070112944,-1.098830571592599
1782891401608710000,10.1847099609375,-0.07954407683610916,1.5910349737182259,-1.3212594169273972
1782891401618731800,10.194731689453125,0.6765992848813533,1.315440793776512,-1.4615540228024124
1782891401628754000,10.20475390625,1.2679390378892421,0.8919181520804762,-1.43144310830757
1782891401638775800,10.21477587890625,1.699399194586277,0.38536271464973687,-1.31972504696697
1782891401648797700,10.224797607421875,1.9152578677505254,-0.13857698830217122,-1.2335204893283545
1782891401658819800,10.23481982421875,2.028873141014576,-0.46150955026298757,-1.2544978109054266
1782891401668841700,10.244841796875,2.040463625565171,-0.6330085649579763,-1.3664780303135513
1782891401678862800,10.25486279296875,1.896552582758665,-0.6970245255336165,-1.5454025188341736
1782891401688884700,10.264884765625,1.597944314715266,-0.6731380385115743,-1.6581677511401474
1782891401698907000,10.274906982421875,1.214019816175103,-0.5443009384572506,-1.6764337679319083
1782891401708928800,10.2849287109375,0.8632195886015892,-0.35500615483075376,-1.6243315325118601
1782891401718950700,10.29495068359375,0.6265373231172561,-0.1309334878116846,-1.4760817298486828
1782891401728972800,10.304972900390625,0.5599579417943954,0.05735737946927547,-1.3740622018322348
1782891401738995000,10.314994873046874,0.5889560727417469,0.20936083557754753,-1.2979612511873244
1782891401749016800,10.325016845703125,0.7176455810189246,0.3319324454963207,-1.1845485147580503
1782891401759039000,10.3350390625,0.9003753070414066,0.44607671107053753,-1.0488735315077007
1782891401769060900,10.345060791015625,1.051796287086606,0.4804615034922957,-0.8838177016027271
1782891401779082800,10.355082763671875,1.2019903556853533,0.47037674732953305,-0.8034122586969286
1782891401789105000,10.36510498046875,1.3488497269034385,0.4061342845216393,-0.6836001035541296
1782891401799126800,10.375126708984375,1.5393950951129196,0.2801023050159216,-0.5618003547906876
1782891401809148700,10.385148681640626,1.715298189985752,0.16078706654459238,-0.4962969686688855
1782891401819169800,10.395169677734375,1.8636404932379722,0.04408580996394157,-0.43350923471394925
1782891401829192000,10.40519189453125,1.9905010325223207,-0.021622049221396444,-0.3846723212327808
1782891401839213800,10.4152138671875,2.0241256542265416,-0.13048136013001202,-0.36464802606422453
1782891401849235700,10.425235595703125,1.874631258329749,-0.23733137704282997,-0.33789796630460767
1782891401859257900,10.4352578125,1.6355577137947082,-0.3518387768410146,-0.27428470477834344
1782891401869279700,10.44527978515625,1.3035539566278458,-0.3997599271841347,-0.22903036249168215
1782891401879302000,10.455302001953125,0.8922837705224752,-0.43401831674724817,-0.11195497536901385
1782891401889323800,10.46532373046875,0.5083598565042019,-0.42995501283109183,-0.05651325679533183
1782891401899346000,10.475345947265625,0.2563385675907135,-0.4031327646180987,-0.02149491571038961
1782891401909367800,10.485367919921876,0.2004150203168392,-0.44940950875505803,0.02453198185134679
1782891401919389700,10.4953896484375,0.15732582017481325,-0.5273958347551524,0.0872484041357413
1782891401929411800,10.505411865234375,0.09528758941292763,-0.5841913425579667,0.10751096503958106
1782891401939433700,10.515433837890624,0.005586275699734688,-0.6082569855391979,0.10681070781573652
1782891401949454800,10.525454833984375,-0.13742284983098507,-0.6149620361357927,0.06793043060563504
1782891401959476700,10.535476806640625,-0.30022564011216163,-0.5916156473398209,0.05256842815969139
1782891401969499000,10.545498779296874,-0.5875643261224031,-0.5565963564068078,0.041521293238177895
1782891401979520800,10.555520751953125,-1.0378343972295523,-0.5008092949941754,-0.05551113054808229
1782891401989542700,10.565542724609376,-1.734246636083722,-0.4850247197546065,-0.13213899114392696
1782891401999564800,10.575564697265625,-2.6089655238211154,-0.42086496679410335,-0.25805428546741604
1782891402009586700,10.585586669921875,-3.5726696859568357,-0.2902585189796984,-0.24713954475391656
1782891402019608800,10.59560888671875,-4.49373180719614,-0.44054026586189865,0.09978223395105451
1782891402029631000,10.605630859375,-5.10110908729136,-0.8536427819609641,0.5776555475810542
1782891402039652900,10.61565283203125,-4.929497552132606,-0.9828373171508311,0.6810144709751009
1782891402049674800,10.6256748046875,-3.9530560734987255,-0.715862935385853,0.2651896537726745
1782891402059697000,10.63569677734375,-2.631551449638605,-0.4114684851564467,-0.21798983997404575
1782891402069718800,10.64571875,-1.3426350901722908,-0.3807227798894047,-0.4707462016964331
1782891402079740000,10.655739990234375,-0.4806254618823528,-0.5660559664085507,-0.5297829856200144
1782891402089761800,10.66576171875,-0.3168529497861862,-0.5903691544100642,-0.8191768140617758
1782891402099784000,10.675783935546875,-0.8154074515908956,-0.43201983640640973,-1.3288152391344308
1782891402109805800,10.685805908203125,-1.5659014092445374,-0.09270721753090619,-1.6766612930774687
1782891402119827700,10.69582763671875,-2.2668413546562194,0.25621903286427256,-1.632512647010386
1782891402129849900,10.705849853515625,-2.77156723857224,0.5985238192930817,-1.3611467522881924
1782891402139871700,10.715871826171876,-3.00331204765439,0.8742609148368239,-1.0185099574260412
1782891402149894000,10.725893798828125,-2.9739672952264544,0.9691326169252396,-0.5629433873459696
1782891402159916000,10.735916015625,-2.667092718619108,0.9509078089267015,-0.21766594178192317
1782891402169938000,10.74593798828125,-1.8925018460631369,0.9309875951871275,0.00704772655442357
1782891402179959800,10.755959716796875,-0.7467530175596475,0.8836147263765335,0.23651494609341023
1782891402189982000,10.76598193359375,0.6362199282199144,0.730078946134448,0.4532750981420278
1782891402200003800,10.77600390625,1.8412690869539976,0.54825581356287,0.5602188577529043
1782891402210025000,10.78602490234375,2.7207237710416314,0.34503421139270063,0.4876617902599275
1782891402220046800,10.796046875,3.220219937610626,-0.011662380743026732,0.2802557054793462
1782891402230069000,10.806069091796875,3.4133851329296827,-0.38042028981149195,-0.04812160481866449
1782891402240091000,10.8160908203125,3.2457734810620544,-0.7667693851500749,-0.5001458991819993
1782891402250112800,10.82611279296875,2.859440167814493,-0.9878338102638721,-0.9243012492910027
1782891402260135000,10.836135009765625,2.2812726155906913,-1.1099968393817543,-1.1645787627883255
1782891402270156800,10.84615673828125,1.6341028388112782,-1.1618836784854532,-1.3181591128244996
1782891402280178700,10.8561787109375,1.0220189884603024,-1.0343366182416678,-1.525284152173996
1782891402290200800,10.866200927734376,0.8829676606446504,-0.7966165341421961,-1.7876957560680806
1782891402300223000,10.876222900390625,0.6687222678959369,-0.7000307216122746,-1.656340535712987
1782891402310244900,10.886244873046875,-0.2627981189936399,-1.6825947747796772,-0.1725567801196128
1782891402320266800,10.896266845703124,-0.06968319255709647,-0.5825470824822783,-0.9875053089618683
1782891402330289000,10.906288818359375,0.9432879815727472,0.7771756283521651,-2.607463302564621
1782891402340309800,10.916309814453125,1.5980512822210788,0.8530307875424623,-2.679084477446973
1782891402350332000,10.926331787109374,1.5451590654671192,0.3781193193927407,-1.6375576554402709
1782891402360354000,10.93635400390625,1.1141624346286059,0.43490415967106816,-1.2315884983524679
1782891402370376000,10.9463759765625,0.5656845027476549,0.9437453699514269,-1.6666138001851736
1782891402380397800,10.956397705078125,0.009831658184528351,0.9582827216088772,-1.7774547864302992
1782891402390419700,10.966419677734375,-0.6201239489436149,0.386945892187953,-1.306175245042145
1782891402400441900,10.97644189453125,-0.7953525055557489,0.2760924848526716,-1.1083603242211044
1782891402410463700,10.986463623046875,-0.6543529662817716,0.5020873521059751,-1.1985029519610106
1782891402420485600,10.996485595703126,-0.8748907371729612,0.48317573088705534,-1.3661374001823365
1782891402430507800,11.0065078125,-1.4306436284929513,0.4177037262842059,-1.819428718806803
1782891402440530000,11.016530029296876,-1.8561837474912404,0.5491226595252752,-2.0767421227790415
1782891402450552300,11.02655224609375,-1.752073969197273,0.7663654805243015,-1.9619158662900327
1782891402460574200,11.03657421875,-1.3057657874584196,1.041124670946598,-1.6989742471724747
1782891402470595000,11.046594970703126,-0.5373112257003784,0.8182315691009163,-0.7964766872800886
1782891402480617200,11.0566171875,0.5742290437310934,0.5750532195955514,0.3132863433457911
1782891402490639000,11.06663916015625,0.4589969829201698,1.57140731318444,-0.4279053137596696
1782891402500661200,11.0766611328125,0.6406061804801225,1.9781185208112,-1.7786081942491232
1782891402510683400,11.086683349609375,0.05005611654520035,0.6212517839297652,-0.29233127013314514
1782891402520705300,11.096705322265626,-0.6297253055036067,-0.3870493525624275,0.7370560186054557
1782891402530727200,11.10672705078125,-0.4230155689567327,0.19914339294582603,-0.6458670236177743
1782891402540749300,11.116749267578125,-0.2268266419023275,1.1591428553447127,-1.6526970646440982
1782891402550771200,11.126771240234374,-0.4065817360281944,1.2190548877328633,-1.22052949033007
1782891402560793000,11.13679296875,-0.5989461363583802,0.9461103455170988,-0.6087689536493271
1782891402570815000,11.14681494140625,-0.5402314970612525,0.8772109968140721,-0.45694560334831474
1782891402580837400,11.15683740234375,-0.3935129956185818,0.5867652846992015,-0.10830810676664113
1782891402590859300,11.166859375,-0.34597207676470276,0.06637713674902916,0.06498436721637844
1782891402600880000,11.176880126953124,-0.3080950583130121,-0.35808103223145005,0.07666603718176483
1782891402610902300,11.18690234375,-0.3631581893652677,-0.8704170988902449,0.15073416682481766
1782891402620924200,11.196924072265626,-0.24252865342497823,-1.151490294764936,-0.2145573813073337
1782891402630946000,11.206946044921875,0.09546353050172328,-1.207669862626493,-0.5708756416499614
1782891402640968200,11.21696826171875,0.5589771140635014,-0.7697235587805509,-1.1250114531621336
1782891402650990300,11.226990234375,0.7234457917302847,-0.3657677873417735,-1.3570682508029044
1782891402661012200,11.23701220703125,0.5513467653155326,0.03325608065277338,-1.467073370745778
1782891402671034000,11.2470341796875,0.20611177065372466,0.63484805534482,-1.7158993707492947
1782891402681056300,11.25705615234375,-0.3430079662621021,1.2456123475298284,-1.9435278305537997
1782891402691078100,11.267078125,-0.8847019370913505,1.6542895945325493,-2.0002337603770197
1782891402701100000,11.27710009765625,-1.3163795359313488,1.815458061610162,-1.8682149615466594
1782891402711122200,11.2871220703125,-1.6754875731229781,1.8129422793969512,-1.7679414004147052
1782891402721144300,11.297144287109376,-1.7328765167742965,1.7555127114742994,-1.6684499295711517
1782891402731165200,11.307165283203124,-1.4282897588431835,1.6512778454959391,-1.653945749530941
1782891402741187000,11.31718701171875,-0.9449509463489055,1.49991239503026,-1.6998277952618897
1782891402751209200,11.327209228515626,-0.5924748945176601,1.1718424701809882,-1.7297051932618022
1782891402761231000,11.337231201171875,-0.38252398409247396,0.8714213074967264,-1.7925344282709061
1782891402771253000,11.3472529296875,-0.01577916841208935,0.6952367653340101,-1.8575271249242127
1782891402781275400,11.357275390625,0.2989800239652395,0.48380263061374423,-1.7152644338466225
1782891402791297300,11.36729736328125,0.5255611666738986,0.28040684092044826,-1.5300534124024212
1782891402801319200,11.377319091796876,0.702325846812129,0.32053836030066013,-1.4080866365090012
1782891402811341300,11.38734130859375,0.8507698568731545,0.50916532766819,-1.3717990792058408
1782891402821363200,11.39736328125,0.9056827657997608,0.65811407238096,-1.3199050797089933
1782891402831385000,11.407385009765624,0.7746604306608438,0.7063745376810431,-1.2550360094353556
1782891402841407200,11.4174072265625,0.3569382919371128,0.8849798772498965,-1.372667678733915
1782891402851429000,11.42742919921875,-0.07597089452445506,0.9524971239447593,-1.3090458320423959
1782891402861450200,11.4374501953125,-0.3058288669466972,0.9995195718824863,-1.1700829131625592
1782891402871472000,11.44747216796875,-0.22506080127358435,1.0656184762120247,-1.1178354240529238
1782891402881494300,11.457494384765624,-0.013621698117256163,1.0068266800254584,-1.071114151018858
1782891402891516200,11.46751611328125,0.306722600916028,0.9107187141403555,-1.0715648173958063
1782891402901538000,11.4775380859375,0.6979033541947602,0.7897709060311316,-0.9761392808169126
1782891402911560200,11.487560302734375,1.1562298905074595,0.7610793568149209,-0.7170273029901086
1782891402921582300,11.497582275390625,1.5461165123224259,0.6248717279925942,-0.3569309854134917
1782891402931604200,11.507604248046874,1.7524866416513918,0.39454263092726466,-0.00047594694867730136
1782891402941626400,11.51762646484375,1.832202567923069,0.19274960025548935,0.22623992805555462
1782891402951648300,11.527648193359376,1.7156407198131083,0.02392360416203737,0.24673721103072166
1782891402961670100,11.537670166015625,1.451224644228816,-0.11209434730708598,0.10012816131189466
