time,seconds_elapsed,z,y,x
1782891391486562300,0.062562255859375,-0.83966064453125,-0.3600921630859375,0.054443359375
1782891391496584400,0.07258447265625,-0.8172149658203125,-0.3799285888671875,0.0706787109375
1782891391506606300,0.0826064453125,-0.78179931640625,-0.3879547119140625,0.05157470703125
1782891391516628200,0.092628173828125,-0.7482147216796875,-0.41455078125,0.03497314453125
1782891391526650400,0.102650390625,-0.7192535400390625,-0.4283447265625,-0.0048828125
1782891391536672300,0.11267236328125,-0.7220001220703125,-0.442047119140625,-0.0527801513671875
1782891391546694400,0.1226943359375,-0.7499542236328125,-0.467681884765625,-0.082855224609375
1782891391556716500,0.132716552734375,-0.773712158203125,-0.4707183837890625,-0.119842529296875
1782891391566738400,0.142738525390625,-0.78863525390625,-0.46954345703125,-0.149383544921875
1782891391576760300,0.15276025390625,-0.8032379150390625,-0.4612884521484375,-0.152679443359375
1782891391586781200,0.16278125,-0.8092041015625,-0.439666748046875,-0.13897705078125
1782891391596803300,0.17280322265625,-0.8120880126953125,-0.413604736328125,-0.1201934814453125
1782891391606825500,0.182825439453125,-0.8012542724609375,-0.3954010009765625,-0.0833587646484375
1782891391616847400,0.192847412109375,-0.800018310546875,-0.3961181640625,-0.038970947265625
1782891391626869500,0.202869384765625,-0.8086090087890625,-0.4073486328125,-0.0118255615234375
1782891391636891400,0.212891357421875,-0.810028076171875,-0.416412353515625,0.0092926025390625
1782891391646913300,0.222913330078125,-0.8291015625,-0.429229736328125,0.0189666748046875
1782891391656935400,0.232935302734375,-0.8671417236328125,-0.446533203125,0.0120086669921875
1782891391666957300,0.242957275390625,-0.9111480712890625,-0.460693359375,0.00579833984375
1782891391676979200,0.252979248046875,-0.9661865234375,-0.476287841796875,0.0197906494140625
1782891391687001300,0.26300146484375,-1.04010009765625,-0.4781646728515625,0.050567626953125
1782891391697023500,0.2730234375,-1.0920257568359375,-0.4529266357421875,0.088134765625
1782891391707045400,0.28304541015625,-1.1244049072265625,-0.422454833984375,0.150115966796875
1782891391717067500,0.293067626953125,-1.1470489501953125,-0.4048614501953125,0.1950225830078125
1782891391727089400,0.30308935546875,-1.167205810546875,-0.39776611328125,0.207183837890625
1782891391737110300,0.3131103515625,-1.18292236328125,-0.385894775390625,0.1715850830078125
1782891391747132400,0.32313232421875,-1.1886444091796875,-0.3775787353515625,0.111083984375
1782891391757154600,0.333154541015625,-1.1887359619140625,-0.377288818359375,0.0564422607421875
1782891391767176400,0.343176513671875,-1.16839599609375,-0.3775177001953125,0.002471923828125
1782891391777198300,0.3531982421875,-1.140289306640625,-0.38848876953125,-0.0413360595703125
1782891391787220500,0.363220458984375,-1.11358642578125,-0.409759521484375,-0.0745697021484375
1782891391797242400,0.373242431640625,-1.093963623046875,-0.4302215576171875,-0.113800048828125
1782891391807264300,0.38326416015625,-1.081298828125,-0.4414825439453125,-0.1501007080078125
1782891391817286100,0.3932861328125,-1.0655975341796875,-0.4413909912109375,-0.177734375
1782891391827308500,0.40330859375,-1.0317535400390625,-0.434539794921875,-0.1907501220703125
1782891391837330400,0.413330322265625,-0.995849609375,-0.428466796875,-0.1904449462890625
1782891391847352300,0.423352294921875,-0.9580078125,-0.41729736328125,-0.1864776611328125
1782891391857374500,0.43337451171875,-0.9242095947265625,-0.4134521484375,-0.18731689453125
1782891391867396400,0.443396240234375,-0.896697998046875,-0.4107513427734375,-0.19427490234375
1782891391877418200,0.453418212890625,-0.8629608154296875,-0.401702880859375,-0.1990203857421875
1782891391887439400,0.463439453125,-0.8289031982421875,-0.388885498046875,-0.1845245361328125
1782891391897461500,0.47346142578125,-0.791839599609375,-0.372344970703125,-0.1812896728515625
1782891391907483400,0.4834833984375,-0.7597808837890625,-0.368408203125,-0.16290283203125
1782891391917505300,0.49350537109375,-0.7288665771484375,-0.371490478515625,-0.1699981689453125
1782891391927527400,0.50352734375,-0.698822021484375,-0.3824920654296875,-0.179656982421875
1782891391937549300,0.51354931640625,-0.672607421875,-0.3996124267578125,-0.18511962890625
1782891391947571200,0.5235712890625,-0.648712158203125,-0.4185028076171875,-0.1939239501953125
1782891391957593300,0.53359326171875,-0.62158203125,-0.43426513671875,-0.2102813720703125
1782891391967615500,0.543615478515625,-0.6025238037109375,-0.4537506103515625,-0.2162933349609375
1782891391977637400,0.553637451171875,-0.5834503173828125,-0.4773101806640625,-0.215057373046875
1782891391987659500,0.563659423828125,-0.563232421875,-0.5008087158203125,-0.2116851806640625
1782891391997681400,0.573681396484375,-0.5386810302734375,-0.519683837890625,-0.2148895263671875
1782891392007703300,0.583703369140625,-0.51214599609375,-0.5384979248046875,-0.2242279052734375
1782891392017725400,0.593725341796875,-0.4797515869140625,-0.55889892578125,-0.239349365234375
1782891392027747300,0.603747314453125,-0.4417572021484375,-0.577056884765625,-0.2483062744140625
1782891392037769200,0.613769287109375,-0.4163970947265625,-0.59124755859375,-0.2378387451171875
1782891392047790300,0.623790283203125,-0.408294677734375,-0.58160400390625,-0.220428466796875
1782891392057812500,0.6338125,-0.4210357666015625,-0.5800933837890625,-0.2105865478515625
1782891392067834400,0.64383447265625,-0.46197509765625,-0.5997161865234375,-0.2010345458984375
1782891392077856300,0.653856201171875,-0.519561767578125,-0.599761962890625,-0.1944427490234375
1782891392087878400,0.66387841796875,-0.5801849365234375,-0.570068359375,-0.200225830078125
1782891392097900300,0.673900390625,-0.6459503173828125,-0.5466461181640625,-0.212249755859375
1782891392107922400,0.68392236328125,-0.7270660400390625,-0.5316619873046875,-0.216094970703125
1782891392117944600,0.693944580078125,-0.8267822265625,-0.508392333984375,-0.21807861328125
1782891392127966500,0.703966552734375,-0.878631591796875,-0.484527587890625,-0.23260498046875
1782891392137988400,0.71398828125,-0.9178619384765625,-0.477783203125,-0.21343994140625
1782891392148010200,0.72401025390625,-0.9740753173828125,-0.459197998046875,-0.1940155029296875
1782891392158032400,0.734032470703125,-1.01141357421875,-0.44830322265625,-0.1925048828125
1782891392168054300,0.74405419921875,-1.0466156005859375,-0.4569854736328125,-0.1490631103515625
1782891392178076200,0.754076171875,-1.08050537109375,-0.443359375,-0.1185760498046875
1782891392188098300,0.764098388671875,-1.1167449951171875,-0.4160614013671875,-0.113433837890625
1782891392198119400,0.774119384765625,-1.15142822265625,-0.3944854736328125,-0.1103363037109375
1782891392208141300,0.784141357421875,-1.1865997314453125,-0.3818511962890625,-0.1140899658203125
1782891392218163200,0.7941630859375,-1.2199249267578125,-0.379913330078125,-0.12298583984375
1782891392228185300,0.804185302734375,-1.2418670654296875,-0.3822174072265625,-0.12847900390625
1782891392238207200,0.814207275390625,-1.2537384033203125,-0.38134765625,-0.1413421630859375
1782891392248229400,0.8242294921875,-1.2593841552734375,-0.3898162841796875,-0.1535491943359375
1782891392258251500,0.83425146484375,-1.255218505859375,-0.406768798828125,-0.147216796875
1782891392268273400,0.8442734375,-1.2384185791015625,-0.438140869140625,-0.108673095703125
1782891392278295300,0.85429541015625,-1.196929931640625,-0.4708099365234375,-0.0658111572265625
1782891392288317400,0.8643173828125,-1.138885498046875,-0.4976959228515625,-0.0287933349609375
1782891392298339300,0.87433935546875,-1.0788726806640625,-0.52703857421875,0.0135650634765625
1782891392308361200,0.884361328125,-1.0177154541015625,-0.5423126220703125,0.0330352783203125
1782891392318383400,0.89438330078125,-0.9798736572265625,-0.544952392578125,0.02789306640625
1782891392328405500,0.904405517578125,-0.9739532470703125,-0.5522308349609375,0.017364501953125
1782891392338427400,0.914427490234375,-1.00311279296875,-0.5463409423828125,-0.0131683349609375
1782891392348449500,0.924449462890625,-1.0497283935546875,-0.515106201171875,-0.0627288818359375
1782891392358470400,0.934470458984375,-1.095611572265625,-0.4676055908203125,-0.1089630126953125
1782891392368492300,0.9444921875,-1.1369781494140625,-0.3981781005859375,-0.1429290771484375
1782891392378514200,0.95451416015625,-1.164398193359375,-0.3430938720703125,-0.1709136962890625
1782891392388536600,0.96453662109375,-1.1736907958984375,-0.3023223876953125,-0.191864013671875
1782891392398558500,0.974558349609375,-1.1634979248046875,-0.2664794921875,-0.188751220703125
1782891392408580400,0.984580322265625,-1.1240386962890625,-0.2478179931640625,-0.15338134765625
1782891392418602500,0.9946025390625,-1.05572509765625,-0.2442779541015625,-0.0899200439453125
1782891392428624400,1.004624267578125,-0.953582763671875,-0.2512969970703125,-0.020751953125
1782891392438645500,1.0146455078125,-0.8312835693359375,-0.2636260986328125,0.0308990478515625
1782891392448667600,1.024667724609375,-0.715545654296875,-0.2804107666015625,0.065582275390625
1782891392458689800,1.034689697265625,-0.628021240234375,-0.3069305419921875,0.088165283203125
1782891392468711700,1.044711669921875,-0.5808868408203125,-0.33905029296875,0.0947113037109375
1782891392478733600,1.054733642578125,-0.572906494140625,-0.36859130859375,0.087432861328125
1782891392488755500,1.06475537109375,-0.5991058349609375,-0.386505126953125,0.073883056640625
1782891392498777600,1.074777587890625,-0.663330078125,-0.395172119140625,0.0543365478515625
1782891392508798700,1.084798828125,-0.7447509765625,-0.3931427001953125,0.0299835205078125
1782891392518820600,1.094820556640625,-0.81719970703125,-0.376800537109375,0.0112762451171875
1782891392528842800,1.1048427734375,-0.8734588623046875,-0.357696533203125,-0.0089569091796875
1782891392538864600,1.11486474609375,-0.9076690673828125,-0.35498046875,-0.0165557861328125
1782891392548886500,1.124886474609375,-0.91387939453125,-0.3538360595703125,-0.01348876953125
1782891392558908400,1.134908447265625,-0.89385986328125,-0.348785400390625,-0.0196380615234375
1782891392568930600,1.1449306640625,-0.854736328125,-0.3386077880859375,-0.036834716796875
1782891392578952400,1.154952392578125,-0.811614990234375,-0.3265838623046875,-0.0431365966796875
1782891392588974600,1.164974609375,-0.7669677734375,-0.31494140625,-0.02886962890625
1782891392598996700,1.174996826171875,-0.738861083984375,-0.3055419921875,-0.0055389404296875
1782891392609018600,1.1850185546875,-0.7308349609375,-0.3029327392578125,0.02618408203125
1782891392619040500,1.19504052734375,-0.7389984130859375,-0.31109619140625,0.05645751953125
1782891392629062700,1.205062744140625,-0.759368896484375,-0.332183837890625,0.082427978515625
1782891392639084500,1.21508447265625,-0.7768707275390625,-0.3509674072265625,0.093475341796875
1782891392649106400,1.2251064453125,-0.7784576416015625,-0.3648834228515625,0.088348388671875
1782891392659127600,1.23512744140625,-0.7646331787109375,-0.3786468505859375,0.06573486328125
1782891392669149700,1.245149658203125,-0.76214599609375,-0.392608642578125,0.0431671142578125
1782891392679171600,1.255171630859375,-0.7907562255859375,-0.408538818359375,0.033599853515625
1782891392689193500,1.265193359375,-0.836822509765625,-0.4189910888671875,0.0321807861328125
1782891392699215600,1.275215576171875,-0.88726806640625,-0.420623779296875,0.045166015625
1782891392709237500,1.285237548828125,-0.9377288818359375,-0.4152374267578125,0.07061767578125
1782891392719259400,1.29525927734375,-0.9786834716796875,-0.405487060546875,0.1039581298828125
1782891392729281500,1.305281494140625,-1.0148773193359375,-0.3787841796875,0.1399383544921875
1782891392739303700,1.3153037109375,-1.0401763916015625,-0.3490753173828125,0.147613525390625
1782891392749325600,1.32532568359375,-1.0576019287109375,-0.34002685546875,0.1855926513671875
1782891392759347700,1.33534765625,-1.0573577880859375,-0.3212127685546875,0.2135772705078125
1782891392769369600,1.34536962890625,-1.0424346923828125,-0.3007965087890625,0.2222747802734375
1782891392779391500,1.3553916015625,-1.0146484375,-0.2823944091796875,0.22552490234375
1782891392789413600,1.36541357421875,-0.987579345703125,-0.2727203369140625,0.2223052978515625
1782891392799435500,1.375435546875,-0.978607177734375,-0.2588958740234375,0.210113525390625
1782891392809456600,1.38545654296875,-0.990814208984375,-0.2386627197265625,0.1923828125
1782891392819478500,1.395478515625,-1.01678466796875,-0.22509765625,0.1827545166015625
1782891392829500700,1.405500732421875,-1.04119873046875,-0.22027587890625,0.1892547607421875
1782891392839522600,1.4155224609375,-1.059173583984375,-0.208343505859375,0.1921539306640625
1782891392849544400,1.42554443359375,-1.074554443359375,-0.192626953125,0.1839447021484375
1782891392859566600,1.435566650390625,-1.089508056640625,-0.1856231689453125,0.172943115234375
1782891392869588700,1.445588623046875,-1.100921630859375,-0.178497314453125,0.1597137451171875
1782891392879610600,1.455610595703125,-1.112274169921875,-0.1779632568359375,0.149444580078125
1782891392889632500,1.465632568359375,-1.12335205078125,-0.18389892578125,0.141357421875
1782891392899654700,1.475654541015625,-1.1243743896484375,-0.197235107421875,0.142181396484375
1782891392909676500,1.485676513671875,-1.1083526611328125,-0.2052154541015625,0.1356964111328125
1782891392919698400,1.495698486328125,-1.0836029052734375,-0.21002197265625,0.1246490478515625
1782891392929720600,1.505720458984375,-1.061004638671875,-0.226837158203125,0.1214141845703125
1782891392939742500,1.515742431640625,-1.0395660400390625,-0.258331298828125,0.139434814453125
1782891392949764600,1.5257646484375,-1.0166015625,-0.2978973388671875,0.1676483154296875
1782891392959785500,1.535785400390625,-0.977813720703125,-0.3085174560546875,0.1657257080078125
1782891392969807600,1.5458076171875,-0.9400482177734375,-0.2844390869140625,0.1261444091796875
1782891392979829500,1.55582958984375,-0.93145751953125,-0.272308349609375,0.094146728515625
1782891392989851400,1.565851318359375,-0.9420318603515625,-0.2695770263671875,0.0839691162109375
1782891392999873500,1.57587353515625,-0.9527435302734375,-0.26702880859375,0.0934295654296875
1782891393009895700,1.585895751953125,-0.94976806640625,-0.255950927734375,0.1097869873046875
1782891393019917600,1.59591748046875,-0.9353179931640625,-0.2395172119140625,0.1243896484375
1782891393029939700,1.605939697265625,-0.915771484375,-0.22161865234375,0.1350250244140625
1782891393039961600,1.615961669921875,-0.9038238525390625,-0.1775360107421875,0.13275146484375
1782891393049983500,1.6259833984375,-0.9146728515625,-0.1416015625,0.1139984130859375
1782891393060005600,1.636005615234375,-0.9440460205078125,-0.12860107421875,0.1107177734375
1782891393070027500,1.646027587890625,-0.98907470703125,-0.116851806640625,0.10418701171875
1782891393080049400,1.65604931640625,-1.0496673583984375,-0.118011474609375,0.0932159423828125
1782891393090071600,1.666071533203125,-1.112579345703125,-0.1223297119140625,0.07757568359375
1782891393100093700,1.67609375,-1.170623779296875,-0.1244354248046875,0.0588226318359375
1782891393110114600,1.686114501953125,-1.2121734619140625,-0.121856689453125,0.0386199951171875
1782891393120136400,1.696136474609375,-1.23309326171875,-0.116973876953125,0.027008056640625
1782891393130158600,1.70615869140625,-1.2381591796875,-0.1208038330078125,0.029144287109375
1782891393140180500,1.716180419921875,-1.2274322509765625,-0.11962890625,0.0400543212890625
1782891393150202600,1.72620263671875,-1.2060546875,-0.1165771484375,0.0438232421875
1782891393160224800,1.736224853515625,-1.1639251708984375,-0.1299591064453125,0.0631256103515625
1782891393170246700,1.74624658203125,-1.1172332763671875,-0.1495819091796875,0.100341796875
1782891393180268500,1.7562685546875,-1.0761260986328125,-0.1580963134765625,0.1186065673828125
1782891393190290700,1.766290771484375,-1.040679931640625,-0.1614837646484375,0.1274566650390625
1782891393200312600,1.7763125,-1.010101318359375,-0.1680755615234375,0.13116455078125
1782891393210334500,1.78633447265625,-0.9915618896484375,-0.1692962646484375,0.1314697265625
1782891393220356400,1.7963564453125,-0.98370361328125,-0.1695556640625,0.1259002685546875
1782891393230378800,1.806378662109375,-0.9818878173828125,-0.1632080078125,0.111328125
1782891393240400600,1.816400634765625,-0.9820709228515625,-0.1590728759765625,0.103363037109375
1782891393250422500,1.826422607421875,-0.99005126953125,-0.1573333740234375,0.0915679931640625
1782891393260443600,1.836443603515625,-0.9836578369140625,-0.1552581787109375,0.0781707763671875
1782891393270465500,1.846465576171875,-0.971099853515625,-0.149627685546875,0.063690185546875
1782891393280487400,1.8564873046875,-0.9483489990234375,-0.1510772705078125,0.04254150390625
1782891393290509600,1.866509521484375,-0.909820556640625,-0.1665802001953125,0.0388641357421875
1782891393300531700,1.87653173828125,-0.863800048828125,-0.1756134033203125,0.03814697265625
1782891393310553600,1.8865537109375,-0.8226165771484375,-0.1770477294921875,0.0272369384765625
1782891393320575500,1.896575439453125,-0.8037261962890625,-0.188079833984375,0.0109405517578125
1782891393330597600,1.90659765625,-0.80029296875,-0.201202392578125,-0.00543212890625
1782891393340619500,1.91661962890625,-0.8121185302734375,-0.2200164794921875,-0.0201263427734375
1782891393350641400,1.926641357421875,-0.84136962890625,-0.2333984375,-0.040252685546875
1782891393360663600,1.93666357421875,-0.877105712890625,-0.2466278076171875,-0.060638427734375
1782891393370685700,1.946685791015625,-0.9122467041015625,-0.2662811279296875,-0.0815887451171875
1782891393380707600,1.95670751953125,-0.94647216796875,-0.290313720703125,-0.10198974609375
1782891393390729700,1.966729736328125,-0.9777069091796875,-0.3055267333984375,-0.1259765625
1782891393400750600,1.97675048828125,-1.001190185546875,-0.3135986328125,-0.152374267578125
1782891393410772500,1.9867724609375,-1.0200653076171875,-0.3181915283203125,-0.1734771728515625
1782891393420794400,1.99679443359375,-1.0351104736328125,-0.3133544921875,-0.189788818359375
1782891393430816800,2.006816650390625,-1.050048828125,-0.299835205078125,-0.20013427734375
1782891393440839000,2.0168388671875,-1.0597076416015625,-0.28240966796875,-0.20367431640625
1782891393450860800,2.02686083984375,-1.06866455078125,-0.2645721435546875,-0.1995697021484375
1782891393460882700,2.036882568359375,-1.070465087890625,-0.242828369140625,-0.18572998046875
1782891393470904800,2.04690478515625,-1.0670318603515625,-0.2235107421875,-0.1739501953125
1782891393480926700,2.0569267578125,-1.0558929443359375,-0.2135772705078125,-0.150177001953125
1782891393490948600,2.066948486328125,-1.04364013671875,-0.223358154296875,-0.120819091796875
1782891393500970800,2.076970703125,-1.0369873046875,-0.2613677978515625,-0.0724029541015625
1782891393510992600,2.08699267578125,-1.0194091796875,-0.323486328125,-0.009796142578125
1782891393521014800,2.097014892578125,-0.981231689453125,-0.379150390625,0.026336669921875
1782891393531037000,2.107036865234375,-0.9181976318359375,-0.398223876953125,0.0351409912109375
1782891393541058800,2.117058837890625,-0.8475341796875,-0.395599365234375,0.0274505615234375
1782891393551079700,2.12707958984375,-0.8044586181640625,-0.4134368896484375,0.0378570556640625
1782891393561101600,2.1371015625,-0.7972412109375,-0.4551849365234375,0.064178466796875
1782891393571123700,2.147123779296875,-0.819366455078125,-0.4935150146484375,0.07110595703125
1782891393581145900,2.157145751953125,-0.8665313720703125,-0.5003509521484375,0.0321502685546875
1782891393591167700,2.167167724609375,-0.9271697998046875,-0.48223876953125,-0.036102294921875
1782891393601190000,2.17718994140625,-0.9893951416015625,-0.4443359375,-0.10491943359375
1782891393611211800,2.187211669921875,-1.03045654296875,-0.386474609375,-0.1427459716796875
1782891393621233700,2.197233642578125,-1.070068359375,-0.3258819580078125,-0.1322479248046875
1782891393631255600,2.207255615234375,-1.101409912109375,-0.2766265869140625,-0.080810546875
1782891393641277700,2.217277587890625,-1.1204071044921875,-0.2409210205078125,-0.0114288330078125
1782891393651299800,2.2272998046875,-1.1279296875,-0.2053680419921875,0.059661865234375
1782891393661321700,2.23732177734375,-1.11932373046875,-0.1707611083984375,0.1158447265625
1782891393671343900,2.24734375,-1.1006317138671875,-0.144775390625,0.1532440185546875
1782891393681365800,2.25736572265625,-1.0798187255859375,-0.1219024658203125,0.1691741943359375
1782891393691387600,2.2673876953125,-1.0595855712890625,-0.1138153076171875,0.164306640625
1782891393701408800,2.27740869140625,-1.0419921875,-0.12384033203125,0.1455535888671875
1782891393711431000,2.287430908203125,-1.0242919921875,-0.1453857421875,0.11846923828125
1782891393721452800,2.297452880859375,-0.9997100830078125,-0.17364501953125,0.092559814453125
1782891393731474700,2.307474609375,-0.96099853515625,-0.203826904296875,0.0870208740234375
1782891393741496800,2.317496826171875,-0.9117431640625,-0.2216644287109375,0.0823974609375
1782891393751518700,2.327518798828125,-0.862213134765625,-0.240264892578125,0.0890350341796875
1782891393761540600,2.33754052734375,-0.8181915283203125,-0.253204345703125,0.0946807861328125
1782891393771562800,2.347562744140625,-0.7863006591796875,-0.270538330078125,0.09466552734375
1782891393781584600,2.357584716796875,-0.7659759521484375,-0.2882080078125,0.0858612060546875
1782891393791606800,2.367606689453125,-0.7555389404296875,-0.303131103515625,0.06671142578125
1782891393801629000,2.37762890625,-0.7527313232421875,-0.3124847412109375,0.0421142578125
1782891393811650800,2.38765087890625,-0.7609710693359375,-0.3200531005859375,0.014678955078125
1782891393821672700,2.397672607421875,-0.7693328857421875,-0.3212432861328125,-0.009063720703125
1782891393831694800,2.40769482421875,-0.7850189208984375,-0.317108154296875,-0.0230255126953125
1782891393841715700,2.4177158203125,-0.808135986328125,-0.305389404296875,-0.0224761962890625
1782891393851737900,2.42773779296875,-0.8377227783203125,-0.286376953125,-0.0101470947265625
1782891393861759700,2.437759765625,-0.863861083984375,-0.2662200927734375,0.012176513671875
1782891393871782000,2.447781982421875,-0.883544921875,-0.2431182861328125,0.0268096923828125
1782891393881803800,2.4578037109375,-0.902557373046875,-0.22265625,0.034698486328125
1782891393891825700,2.46782568359375,-0.9235992431640625,-0.2080535888671875,0.0382080078125
1782891393901847800,2.477847900390625,-0.9395294189453125,-0.1957550048828125,0.038238525390625
1782891393911869700,2.48786962890625,-0.954193115234375,-0.1936798095703125,0.0257110595703125
1782891393921891600,2.4978916015625,-0.9710693359375,-0.2024688720703125,0.0057830810546875
1782891393931913700,2.507913818359375,-0.9872589111328125,-0.2171783447265625,-0.015472412109375
1782891393941935900,2.517935791015625,-0.9951934814453125,-0.228485107421875,-0.0352020263671875
1782891393951957800,2.527957763671875,-0.997802734375,-0.2414703369140625,-0.0506591796875
1782891393961979600,2.537979736328125,-0.992340087890625,-0.2544403076171875,-0.059722900390625
1782891393972001800,2.548001708984375,-0.9870147705078125,-0.2652130126953125,-0.068115234375
1782891393982023700,2.558023681640625,-0.9876556396484375,-0.277984619140625,-0.0674896240234375
1782891393992044800,2.568044921875,-0.9980926513671875,-0.29864501953125,-0.048583984375
1782891394002067000,2.57806689453125,-1.012725830078125,-0.333526611328125,-0.022308349609375
1782891394012088800,2.5880888671875,-1.0177764892578125,-0.3536834716796875,-0.02044677734375
1782891394022110700,2.59811083984375,-1.01861572265625,-0.34478759765625,-0.051361083984375
1782891394032132600,2.608132568359375,-1.014404296875,-0.326416015625,-0.101043701171875
1782891394042154800,2.61815478515625,-1.0211944580078125,-0.3112945556640625,-0.15576171875
1782891394052176600,2.6281767578125,-1.0387115478515625,-0.301239013671875,-0.2083587646484375
1782891394062198500,2.638198486328125,-1.06536865234375,-0.304473876953125,-0.23931884765625
1782891394072221000,2.648220947265625,-1.0884857177734375,-0.304901123046875,-0.25213623046875
1782891394082242800,2.658242919921875,-1.097198486328125,-0.3017120361328125,-0.2429962158203125
1782891394092264700,2.6682646484375,-1.0848541259765625,-0.2937774658203125,-0.2130279541015625
1782891394102286800,2.678286865234375,-1.0439910888671875,-0.276611328125,-0.1713104248046875
1782891394112308700,2.688308837890625,-0.982086181640625,-0.25799560546875,-0.12158203125
1782891394122330600,2.69833056640625,-0.922607421875,-0.2447509765625,-0.076568603515625
1782891394132351700,2.708351806640625,-0.87744140625,-0.2460174560546875,-0.0476837158203125
1782891394142374000,2.718373779296875,-0.8560028076171875,-0.2547607421875,-0.0330657958984375
1782891394152395800,2.728395751953125,-0.8563690185546875,-0.26800537109375,-0.032470703125
1782891394162417700,2.738417724609375,-0.8727874755859375,-0.28765869140625,-0.035400390625
1782891394172439800,2.748439697265625,-0.9003448486328125,-0.309051513671875,-0.042236328125
1782891394182461700,2.758461669921875,-0.921875,-0.3315582275390625,-0.0470428466796875
1782891394192483600,2.768483642578125,-0.9272308349609375,-0.3530426025390625,-0.0459442138671875
1782891394202505700,2.778505615234375,-0.9175262451171875,-0.36260986328125,-0.0467529296875
1782891394212527900,2.78852783203125,-0.89544677734375,-0.367950439453125,-0.038116455078125
1782891394222549800,2.7985498046875,-0.8697967529296875,-0.368438720703125,-0.0265350341796875
1782891394232572000,2.808572021484375,-0.8488006591796875,-0.3686981201171875,-0.01580810546875
1782891394242593800,2.81859375,-0.84295654296875,-0.3697052001953125,-0.011322021484375
1782891394252615700,2.82861572265625,-0.847198486328125,-0.362762451171875,-0.0135498046875
1782891394262637800,2.838637939453125,-0.8635406494140625,-0.35205078125,-0.024444580078125
1782891394272659000,2.848658935546875,-0.89361572265625,-0.3424835205078125,-0.0416412353515625
1782891394282680800,2.858680908203125,-0.9318389892578125,-0.33349609375,-0.0605010986328125
1782891394292702700,2.86870263671875,-0.96417236328125,-0.3204345703125,-0.0821685791015625
1782891394302724900,2.878724853515625,-0.983062744140625,-0.3115997314453125,-0.0953369140625
1782891394312746800,2.888746826171875,-0.9926300048828125,-0.3041534423828125,-0.0976715087890625
1782891394322768600,2.8987685546875,-0.9947509765625,-0.3012542724609375,-0.082916259765625
1782891394332790800,2.908790771484375,-0.9901885986328125,-0.2978057861328125,-0.0565185546875
1782891394342812700,2.918812744140625,-0.9781036376953125,-0.2938690185546875,-0.0340423583984375
1782891394352834800,2.928834716796875,-0.9680328369140625,-0.291717529296875,-0.0101470947265625
1782891394362856700,2.938856689453125,-0.956329345703125,-0.2914581298828125,0.0185089111328125
1782891394372878800,2.94887890625,-0.946685791015625,-0.2920074462890625,0.0525665283203125
1782891394382900700,2.958900634765625,-0.93798828125,-0.287445068359375,0.0892333984375
1782891394392922600,2.968922607421875,-0.9326629638671875,-0.2858123779296875,0.132598876953125
1782891394402944800,2.97894482421875,-0.9275360107421875,-0.2841339111328125,0.1656646728515625
1782891394412966700,2.988966552734375,-0.9315185546875,-0.2812652587890625,0.1908416748046875
1782891394422987800,2.99898779296875,-0.9444580078125,-0.2842559814453125,0.2096405029296875
1782891394433010000,3.009010009765625,-0.9666900634765625,-0.287994384765625,0.215728759765625
1782891394443032600,3.019032470703125,-0.99188232421875,-0.2965240478515625,0.2188873291015625
1782891394453054700,3.0290546875,-1.0138397216796875,-0.3027191162109375,0.2169647216796875
1782891394463076600,3.03907666015625,-1.03289794921875,-0.3045196533203125,0.2086334228515625
1782891394473098500,3.049098388671875,-1.0395965576171875,-0.30950927734375,0.1969451904296875
1782891394483120600,3.05912060546875,-1.0388946533203125,-0.316436767578125,0.1805572509765625
1782891394493142500,3.069142578125,-1.0311126708984375,-0.3278961181640625,0.165008544921875
1782891394503164400,3.079164306640625,-1.018707275390625,-0.3406219482421875,0.147064208984375
1782891394513186800,3.089186767578125,-1.002044677734375,-0.3484649658203125,0.1303863525390625
1782891394523208700,3.099208740234375,-0.98687744140625,-0.3562774658203125,0.1125335693359375
1782891394533230600,3.109230712890625,-0.9764251708984375,-0.3604583740234375,0.0871429443359375
1782891394543252700,3.119252685546875,-0.973358154296875,-0.3572540283203125,0.0551605224609375
1782891394553274600,3.129274658203125,-0.9749908447265625,-0.346832275390625,0.02227783203125
1782891394563295500,3.13929541015625,-0.9780731201171875,-0.3260650634765625,-0.008636474609375
1782891394573317600,3.149317626953125,-0.9921722412109375,-0.3083953857421875,-0.025360107421875
1782891394583339800,3.15933984375,-1.0110321044921875,-0.2917022705078125,-0.0284576416015625
1782891394593361700,3.169361572265625,-1.0271453857421875,-0.273223876953125,-0.0284271240234375
1782891394603383600,3.179383544921875,-1.04351806640625,-0.25433349609375,-0.0236968994140625
1782891394613405700,3.18940576171875,-1.0496673583984375,-0.2352447509765625,-0.014373779296875
1782891394623427600,3.199427490234375,-1.0377197265625,-0.2174835205078125,0.002349853515625
1782891394633449500,3.209449462890625,-1.0093841552734375,-0.2089996337890625,0.0218505859375
1782891394643471600,3.2194716796875,-0.9801025390625,-0.20977783203125,0.04150390625
1782891394653493800,3.22949365234375,-0.9491119384765625,-0.2199249267578125,0.059295654296875
1782891394663515600,3.239515625,-0.9185791015625,-0.23638916015625,0.070159912109375
1782891394673537800,3.249537841796875,-0.8911895751953125,-0.2593231201171875,0.0796356201171875
1782891394683559700,3.2595595703125,-0.874298095703125,-0.2930450439453125,0.0863800048828125
1782891394693581600,3.26958154296875,-0.862762451171875,-0.3285064697265625,0.0884552001953125
1782891394703603500,3.279603515625,-0.857940673828125,-0.3607177734375,0.0868072509765625
1782891394713624800,3.289624755859375,-0.8571014404296875,-0.3898468017578125,0.0811309814453125
1782891394723646700,3.299646728515625,-0.8594970703125,-0.4210205078125,0.0724029541015625
1782891394733668600,3.309668701171875,-0.864990234375,-0.452728271484375,0.0612335205078125
1782891394743690800,3.319690673828125,-0.8647918701171875,-0.473602294921875,0.0456390380859375
1782891394753712600,3.329712646484375,-0.8599700927734375,-0.4921875,0.0300445556640625
1782891394763734500,3.339734619140625,-0.84716796875,-0.5059051513671875,0.0258331298828125
1782891394773756400,3.34975634765625,-0.8323211669921875,-0.5115814208984375,0.03021240234375
1782891394783778600,3.359778564453125,-0.8167266845703125,-0.506378173828125,0.0353546142578125
1782891394793800700,3.36980078125,-0.8033294677734375,-0.4936065673828125,0.042449951171875
1782891394803822600,3.379822509765625,-0.7947998046875,-0.4842529296875,0.0561676025390625
1782891394813844700,3.3898447265625,-0.79388427734375,-0.46807861328125,0.074615478515625
1782891394823866600,3.39986669921875,-0.798919677734375,-0.4517822265625,0.1015777587890625
1782891394833888500,3.409888427734375,-0.810791015625,-0.436920166015625,0.1339569091796875
1782891394843910700,3.41991064453125,-0.8211212158203125,-0.4181976318359375,0.155426025390625
1782891394853931800,3.429931884765625,-0.82745361328125,-0.4077911376953125,0.177825927734375
1782891394863953700,3.43995361328125,-0.828765869140625,-0.4021759033203125,0.2005767822265625
1782891394873975600,3.4499755859375,-0.8249664306640625,-0.3999176025390625,0.2212982177734375
1782891394883997700,3.459997802734375,-0.818389892578125,-0.4026031494140625,0.24261474609375
1782891394894019600,3.47001953125,-0.8108062744140625,-0.4083099365234375,0.2590179443359375
1782891394904041500,3.48004150390625,-0.7999114990234375,-0.4192047119140625,0.2706451416015625
1782891394914063600,3.490063720703125,-0.7890777587890625,-0.4303436279296875,0.2751312255859375
1782891394924085500,3.50008544921875,-0.7837066650390625,-0.4481201171875,0.2834625244140625
1782891394934107600,3.510107666015625,-0.7831573486328125,-0.4590606689453125,0.28839111328125
1782891394944129800,3.5201298828125,-0.7830047607421875,-0.4651031494140625,0.288360595703125
1782891394954151700,3.530151611328125,-0.7852935791015625,-0.47198486328125,0.291839599609375
1782891394964173600,3.540173583984375,-0.790679931640625,-0.4779815673828125,0.29168701171875
1782891394974195700,3.55019580078125,-0.8007965087890625,-0.4752960205078125,0.28955078125
1782891394984217600,3.560217529296875,-0.812713623046875,-0.47039794921875,0.2895050048828125
1782891394994239500,3.570239501953125,-0.8293609619140625,-0.46295166015625,0.2960662841796875
1782891395004260600,3.580260498046875,-0.851470947265625,-0.453887939453125,0.30419921875
1782891395014282800,3.59028271484375,-0.87835693359375,-0.4399261474609375,0.3045806884765625
1782891395024304600,3.6003046875,-0.9011993408203125,-0.4232635498046875,0.30169677734375
1782891395034326500,3.610326416015625,-0.9156951904296875,-0.41009521484375,0.292694091796875
1782891395044348700,3.6203486328125,-0.9278106689453125,-0.395599365234375,0.2803955078125
1782891395054370600,3.63037060546875,-0.93853759765625,-0.387664794921875,0.27056884765625
1782891395064392400,3.640392333984375,-0.947113037109375,-0.378265380859375,0.2553558349609375
1782891395074414800,3.650414794921875,-0.9583740234375,-0.3682098388671875,0.2394866943359375
1782891395084436700,3.660436767578125,-0.9759979248046875,-0.3580780029296875,0.2218475341796875
1782891395094458600,3.670458740234375,-0.9948272705078125,-0.3526763916015625,0.207916259765625
1782891395104480500,3.68048046875,-1.0151824951171875,-0.348541259765625,0.196746826171875
1782891395114502700,3.690502685546875,-1.03070068359375,-0.3437652587890625,0.1933441162109375
1782891395124524500,3.700524658203125,-1.038848876953125,-0.3360748291015625,0.1921844482421875
1782891395134546400,3.71054638671875,-1.0410003662109375,-0.33404541015625,0.19317626953125
1782891395144567800,3.72056787109375,-1.0356292724609375,-0.3339691162109375,0.1949310302734375
1782891395154589700,3.730589599609375,-1.026458740234375,-0.3343505859375,0.1891937255859375
1782891395164611600,3.740611572265625,-1.0218658447265625,-0.340118408203125,0.17913818359375
1782891395174633500,3.750633544921875,-1.01947021484375,-0.3475494384765625,0.1667022705078125
1782891395184655600,3.760655517578125,-1.0111236572265625,-0.3549652099609375,0.15203857421875
1782891395194677500,3.770677490234375,-1.003814697265625,-0.3625946044921875,0.1402587890625
1782891395204699400,3.780699462890625,-0.995849609375,-0.37164306640625,0.131011962890625
1782891395214721800,3.7907216796875,-0.98602294921875,-0.3805084228515625,0.12469482421875
1782891395224743700,3.80074365234375,-0.976470947265625,-0.3866424560546875,0.119537353515625
1782891395234765600,3.810765625,-0.9617919921875,-0.3895416259765625,0.113189697265625
1782891395244787700,3.82078759765625,-0.947662353515625,-0.392120361328125,0.10064697265625
1782891395254809600,3.8308095703125,-0.93658447265625,-0.3949737548828125,0.0908966064453125
1782891395264831500,3.84083154296875,-0.9318084716796875,-0.39752197265625,0.0796966552734375
1782891395274853600,3.850853515625,-0.92999267578125,-0.40167236328125,0.0663604736328125
1782891395284874800,3.860874755859375,-0.928314208984375,-0.40679931640625,0.0568084716796875
1782891395294896600,3.870896728515625,-0.928375244140625,-0.418121337890625,0.05023193359375
1782891395304918500,3.88091845703125,-0.9197540283203125,-0.4258270263671875,0.0475616455078125
1782891395314940700,3.890940673828125,-0.908599853515625,-0.43109130859375,0.046661376953125
1782891395324962600,3.900962646484375,-0.8892669677734375,-0.4326934814453125,0.0415496826171875
1782891395334984400,3.910984375,-0.8718719482421875,-0.4310150146484375,0.0436248779296875
1782891395345006600,3.921006591796875,-0.8575439453125,-0.4250946044921875,0.0459442138671875
1782891395355028700,3.93102880859375,-0.8490142822265625,-0.4170684814453125,0.048553466796875
1782891395365050600,3.941050537109375,-0.8498077392578125,-0.410675048828125,0.0514373779296875
1782891395375072800,3.95107275390625,-0.8592987060546875,-0.4083251953125,0.0552520751953125
1782891395385094700,3.9610947265625,-0.8659515380859375,-0.4007568359375,0.0579376220703125
1782891395395116500,3.971116455078125,-0.8680572509765625,-0.3957977294921875,0.0555877685546875
1782891395405138700,3.981138671875,-0.86529541015625,-0.3907623291015625,0.055084228515625
1782891395415160600,3.99116064453125,-0.8554840087890625,-0.3876190185546875,0.059783935546875
1782891395425181700,4.001181640625,-0.840484619140625,-0.3765716552734375,0.058380126953125
1782891395435203600,4.01120361328125,-0.82135009765625,-0.363800048828125,0.062286376953125
1782891395445225500,4.0212255859375,-0.8152313232421875,-0.3542938232421875,0.0611572265625
1782891395455247400,4.031247314453125,-0.81890869140625,-0.3519287109375,0.05450439453125
1782891395465269500,4.04126953125,-0.8402557373046875,-0.3551025390625,0.0521392822265625
1782891395475291400,4.05129150390625,-0.8678436279296875,-0.367462158203125,0.045074462890625
1782891395485313500,4.0613134765625,-0.887664794921875,-0.3807220458984375,0.042236328125
1782891395495335400,4.07133544921875,-0.8997650146484375,-0.38934326171875,0.035614013671875
1782891395505357600,4.081357666015625,-0.906158447265625,-0.4002227783203125,0.0194854736328125
1782891395515379500,4.09137939453125,-0.9121856689453125,-0.4087982177734375,-0.0091705322265625
1782891395525401300,4.1014013671875,-0.9233245849609375,-0.410003662109375,-0.045623779296875
1782891395535423500,4.111423583984375,-0.9395599365234375,-0.4033355712890625,-0.0845947265625
1782891395545445400,4.1214453125,-0.9654998779296875,-0.38775634765625,-0.1160736083984375
1782891395555467300,4.13146728515625,-1.003662109375,-0.368072509765625,-0.1427764892578125
1782891395565489400,4.141489501953125,-1.049041748046875,-0.3428192138671875,-0.168487548828125
1782891395575510500,4.151510498046875,-1.0908660888671875,-0.3135223388671875,-0.19403076171875
1782891395585532400,4.161532470703125,-1.1294403076171875,-0.285614013671875,-0.2083587646484375
1782891395595554300,4.17155419921875,-1.1607818603515625,-0.2655487060546875,-0.200347900390625
1782891395605576400,4.181576416015625,-1.17645263671875,-0.2502899169921875,-0.183807373046875
1782891395615598300,4.191598388671875,-1.1794586181640625,-0.2402496337890625,-0.1661376953125
1782891395625620500,4.201620361328125,-1.17254638671875,-0.2314605712890625,-0.1541748046875
1782891395635642600,4.211642578125,-1.1547088623046875,-0.2293548583984375,-0.1472930908203125
1782891395645664500,4.22166455078125,-1.125946044921875,-0.235687255859375,-0.1536865234375
1782891395655686400,4.231686279296875,-1.0933685302734375,-0.245452880859375,-0.16668701171875
1782891395665708500,4.24170849609375,-1.0619354248046875,-0.2557525634765625,-0.176239013671875
1782891395675730400,4.25173046875,-1.0353851318359375,-0.2650909423828125,-0.1886444091796875
1782891395685752300,4.26175244140625,-1.0113525390625,-0.2689971923828125,-0.1951904296875
1782891395695774500,4.2717744140625,-0.9911956787109375,-0.27362060546875,-0.1910400390625
1782891395705796600,4.281796630859375,-0.97052001953125,-0.2746734619140625,-0.18145751953125
1782891395715817500,4.2918173828125,-0.9506072998046875,-0.2737274169921875,-0.1664276123046875
1782891395725839400,4.30183935546875,-0.936248779296875,-0.2741546630859375,-0.1501007080078125
1782891395735861500,4.311861572265625,-0.92584228515625,-0.278717041015625,-0.1329498291015625
1782891395745883400,4.32188330078125,-0.9160003662109375,-0.2857818603515625,-0.116241455078125
1782891395755905300,4.3319052734375,-0.9025726318359375,-0.2914276123046875,-0.104217529296875
1782891395765927700,4.341927734375,-0.8837127685546875,-0.2958831787109375,-0.0974884033203125
1782891395775949600,4.351949462890625,-0.867706298828125,-0.30474853515625,-0.1001129150390625
1782891395785971500,4.361971435546875,-0.8511962890625,-0.316741943359375,-0.098663330078125
1782891395795993600,4.37199365234375,-0.8392791748046875,-0.3307647705078125,-0.1035003662109375
1782891395806015500,4.382015380859375,-0.8274078369140625,-0.3435211181640625,-0.1072998046875
1782891395816037400,4.392037353515625,-0.8135528564453125,-0.357666015625,-0.1109466552734375
1782891395826059300,4.402059326171875,-0.799560546875,-0.3677520751953125,-0.118316650390625
1782891395836081400,4.412081298828125,-0.7896728515625,-0.372650146484375,-0.12933349609375
1782891395846103600,4.422103515625,-0.7857666015625,-0.371917724609375,-0.1373443603515625
1782891395856124400,4.43212451171875,-0.780029296875,-0.363739013671875,-0.139404296875
1782891395866146600,4.442146484375,-0.771270751953125,-0.3531494140625,-0.132781982421875
1782891395876168400,4.45216845703125,-0.7635345458984375,-0.3424072265625,-0.1168975830078125
1782891395886190300,4.4621904296875,-0.7582855224609375,-0.3325958251953125,-0.09637451171875
1782891395896212200,4.472212158203125,-0.7596435546875,-0.32012939453125,-0.0847930908203125
1782891395906234600,4.482234619140625,-0.7653350830078125,-0.3124542236328125,-0.0719757080078125
1782891395916256500,4.492256591796875,-0.7805938720703125,-0.3114471435546875,-0.067718505859375
1782891395926278400,4.5022783203125,-0.8084259033203125,-0.314849853515625,-0.0740814208984375
1782891395936300500,4.512300537109375,-0.8421630859375,-0.326904296875,-0.0906219482421875
1782891395946322400,4.522322509765625,-0.8734130859375,-0.345367431640625,-0.1043548583984375
1782891395956344300,4.53234423828125,-0.89910888671875,-0.3648681640625,-0.123565673828125
1782891395966366500,4.542366455078125,-0.923095703125,-0.386016845703125,-0.1429901123046875
1782891395976388400,4.552388427734375,-0.940887451171875,-0.4135894775390625,-0.1562347412109375
1782891395986410500,4.562410400390625,-0.9561309814453125,-0.435455322265625,-0.165771484375
1782891395996431400,4.572431396484375,-0.9628753662109375,-0.4574432373046875,-0.169952392578125
1782891396006453500,4.58245361328125,-0.9566497802734375,-0.468048095703125,-0.1644134521484375
1782891396016475400,4.592475341796875,-0.9303741455078125,-0.467742919921875,-0.1554107666015625
1782891396026497300,4.602497314453125,-0.8971099853515625,-0.4543609619140625,-0.14276123046875
1782891396036519400,4.61251953125,-0.8748931884765625,-0.4381561279296875,-0.127288818359375
1782891396046541600,4.62254150390625,-0.8701171875,-0.4282989501953125,-0.1182098388671875
1782891396056563500,4.6325634765625,-0.886077880859375,-0.4243927001953125,-0.11859130859375
1782891396066585600,4.642585693359375,-0.9091644287109375,-0.428558349609375,-0.1228179931640625
1782891396076607500,4.652607421875,-0.9259185791015625,-0.4404754638671875,-0.1287994384765625
1782891396086629400,4.66262939453125,-0.9327545166015625,-0.4446868896484375,-0.1309661865234375
1782891396096651500,4.672651611328125,-0.9351043701171875,-0.4496612548828125,-0.12554931640625
1782891396106673400,4.68267333984375,-0.936798095703125,-0.4589385986328125,-0.123138427734375
1782891396116695300,4.6926953125,-0.94415283203125,-0.46551513671875,-0.1273040771484375
1782891396126717400,4.702717529296875,-0.960601806640625,-0.4687042236328125,-0.1337432861328125
1782891396136738600,4.712738525390625,-0.9834136962890625,-0.4624786376953125,-0.1434783935546875
1782891396146760400,4.722760498046875,-1.0200653076171875,-0.4549713134765625,-0.148681640625
1782891396156782300,4.7327822265625,-1.0654449462890625,-0.4511566162109375,-0.14410400390625
1782891396166804500,4.742804443359375,-1.1173095703125,-0.4441375732421875,-0.1381683349609375
1782891396176826400,4.752826416015625,-1.175201416015625,-0.4292755126953125,-0.119842529296875
1782891396186848500,4.7628486328125,-1.2263336181640625,-0.4200439453125,-0.0858154296875
1782891396196870700,4.77287060546875,-1.2525177001953125,-0.4027252197265625,-0.0460662841796875
1782891396206892500,4.782892578125,-1.2543182373046875,-0.3804168701171875,-0.012725830078125
1782891396216914400,4.79291455078125,-1.2348480224609375,-0.3641815185546875,0.0255889892578125
1782891396226936300,4.802936279296875,-1.200592041015625,-0.355224609375,0.0606689453125
1782891396236958500,4.81295849609375,-1.164581298828125,-0.3453521728515625,0.075103759765625
1782891396246980400,4.82298046875,-1.128875732421875,-0.3373260498046875,0.0795135498046875
1782891396257002200,4.833002197265625,-1.103759765625,-0.335174560546875,0.077728271484375
1782891396267024600,4.843024658203125,-1.0927276611328125,-0.3297576904296875,0.0772857666015625
1782891396277045500,4.85304541015625,-1.093719482421875,-0.31829833984375,0.072601318359375
1782891396287067400,4.8630673828125,-1.1094970703125,-0.301849365234375,0.0695953369140625
1782891396297089300,4.87308935546875,-1.13079833984375,-0.28558349609375,0.068572998046875
1782891396307111400,4.883111328125,-1.149322509765625,-0.270782470703125,0.06683349609375
1782891396317133300,4.89313330078125,-1.1582794189453125,-0.2543182373046875,0.0667877197265625
1782891396327155500,4.903155517578125,-1.1525421142578125,-0.2386322021484375,0.073333740234375
1782891396337177600,4.913177490234375,-1.1372222900390625,-0.22698974609375,0.0878753662109375
1782891396347199500,4.923199462890625,-1.1069793701171875,-0.230194091796875,0.1176910400390625
1782891396357221400,4.933221435546875,-1.05889892578125,-0.239898681640625,0.1580810546875
1782891396367243500,4.943243408203125,-0.9910888671875,-0.2416534423828125,0.1926116943359375
1782891396377265400,4.953265380859375,-0.909149169921875,-0.2468719482421875,0.215789794921875
1782891396387287300,4.963287353515625,-0.8277130126953125,-0.256072998046875,0.2406158447265625
1782891396397309400,4.973309326171875,-0.7577972412109375,-0.261993408203125,0.2592010498046875
1782891396407331600,4.98333154296875,-0.7098541259765625,-0.2667999267578125,0.269439697265625
1782891396417352400,4.9933525390625,-0.6893768310546875,-0.2826385498046875,0.2714385986328125
1782891396427374300,5.003374267578125,-0.692230224609375,-0.2979278564453125,0.26690673828125
1782891396437396500,5.013396484375,-0.721710205078125,-0.310821533203125,0.2557220458984375
1782891396447418000,5.023418212890625,-0.7706451416015625,-0.3206024169921875,0.2362518310546875
1782891396457440300,5.033440185546875,-0.8270416259765625,-0.321807861328125,0.2177734375
1782891396467462400,5.04346240234375,-0.8702850341796875,-0.316650390625,0.2064971923828125
1782891396477484300,5.053484375,-0.89813232421875,-0.307373046875,0.2034149169921875
1782891396487506200,5.063506103515625,-0.9048309326171875,-0.2968597412109375,0.201141357421875
1782891396497528300,5.0735283203125,-0.894012451171875,-0.2885894775390625,0.1992645263671875
1782891396507550200,5.08355029296875,-0.872039794921875,-0.2873992919921875,0.189666748046875
1782891396517572000,5.093572021484375,-0.8462982177734375,-0.2906494140625,0.1743011474609375
1782891396527594000,5.103593994140625,-0.8238983154296875,-0.3001556396484375,0.1575775146484375
1782891396537616100,5.1136162109375,-0.8060150146484375,-0.31475830078125,0.141754150390625
1782891396547638300,5.12363818359375,-0.792510986328125,-0.33038330078125,0.1213226318359375
1782891396557659100,5.1336591796875,-0.7881317138671875,-0.3505706787109375,0.1053466796875
1782891396567681300,5.143681396484375,-0.795135498046875,-0.3691253662109375,0.0989532470703125
1782891396577703200,5.153703125,-0.8130035400390625,-0.3858489990234375,0.0958251953125
1782891396587725000,5.16372509765625,-0.8334503173828125,-0.3982391357421875,0.0908050537109375
1782891396597747200,5.173747314453125,-0.8527374267578125,-0.4082794189453125,0.0770263671875
1782891396607769300,5.183769287109375,-0.8700408935546875,-0.413787841796875,0.0662689208984375
1782891396617791200,5.193791259765625,-0.8888397216796875,-0.42138671875,0.0599822998046875
1782891396627813000,5.203813232421875,-0.906097412109375,-0.4268341064453125,0.0520782470703125
1782891396637835300,5.213835205078125,-0.9232635498046875,-0.4282684326171875,0.0385589599609375
1782891396647857200,5.223857177734375,-0.9336090087890625,-0.43109130859375,0.029937744140625
1782891396657879000,5.233879150390625,-0.934234619140625,-0.43212890625,0.0275726318359375
1782891396667901200,5.243901123046875,-0.931060791015625,-0.429962158203125,0.03143310546875
1782891396677923300,5.25392333984375,-0.9238433837890625,-0.427032470703125,0.0346832275390625
1782891396687945200,5.2639453125,-0.9212188720703125,-0.4247283935546875,0.03973388671875
1782891396697966000,5.273966064453125,-0.9249725341796875,-0.4214935302734375,0.0392608642578125
1782891396707988200,5.28398828125,-0.934722900390625,-0.4187164306640625,0.0333251953125
1782891396718010000,5.294010009765625,-0.9454498291015625,-0.4173126220703125,0.022125244140625
1782891396728032000,5.304031982421875,-0.9542388916015625,-0.4195556640625,0.0036773681640625
1782891396738054400,5.314054443359375,-0.96380615234375,-0.4269561767578125,-0.01531982421875
1782891396748076300,5.324076171875,-0.979156494140625,-0.4391632080078125,-0.0324249267578125
1782891396758098200,5.33409814453125,-0.9972076416015625,-0.4565887451171875,-0.03961181640625
1782891396768120300,5.344120361328125,-1.01513671875,-0.4866485595703125,-0.0233001708984375
1782891396778142200,5.35414208984375,-1.024261474609375,-0.5379486083984375,0.0227203369140625
1782891396788164000,5.3641640625,-1.009002685546875,-0.58746337890625,0.065948486328125
1782891396798186200,5.374186279296875,-0.956878662109375,-0.5927276611328125,0.05596923828125
1782891396808208100,5.3842080078125,-0.8871917724609375,-0.5467681884765625,-0.02093505859375
1782891396818230300,5.394230224609375,-0.8416595458984375,-0.503631591796875,-0.1068572998046875
1782891396828252400,5.40425244140625,-0.838836669921875,-0.4903717041015625,-0.153839111328125
1782891396838273300,5.414273193359375,-0.8784942626953125,-0.484375,-0.174896240234375
1782891396848295200,5.424295166015625,-0.9553070068359375,-0.454559326171875,-0.1982269287109375
1782891396858317000,5.434317138671875,-1.037750244140625,-0.395843505859375,-0.2080230712890625
1782891396868339200,5.444339111328125,-1.100860595703125,-0.3211669921875,-0.2020111083984375
1782891396878361300,5.454361328125,-1.146484375,-0.245361328125,-0.1872406005859375
1782891396888383200,5.46438330078125,-1.180023193359375,-0.1888885498046875,-0.1667022705078125
1782891396898405400,5.4744052734375,-1.1846771240234375,-0.152801513671875,-0.1313323974609375
1782891396908427300,5.48442724609375,-1.165740966796875,-0.1378021240234375,-0.084503173828125
1782891396918449200,5.49444921875,-1.1142578125,-0.1370086669921875,-0.03857421875
1782891396928471000,5.504470947265625,-1.074981689453125,-0.1608734130859375,-0.0077362060546875
1782891396938493200,5.5144931640625,-1.0301666259765625,-0.1837921142578125,-0.0142059326171875
1782891396948515000,5.52451513671875,-0.9653472900390625,-0.20465087890625,-0.0340728759765625
1782891396958537200,5.534537109375,-0.8860931396484375,-0.23114013671875,-0.03619384765625
1782891396968558300,5.544558349609375,-0.807159423828125,-0.263885498046875,-0.0241851806640625
1782891396978580200,5.554580322265625,-0.7481536865234375,-0.292877197265625,-0.022674560546875
1782891396988602000,5.56460205078125,-0.7083282470703125,-0.3202362060546875,-0.0295867919921875
1782891396998624000,5.5746240234375,-0.690460205078125,-0.3465118408203125,-0.0287322998046875
1782891397008646100,5.584646240234375,-0.6755828857421875,-0.3689422607421875,-0.0240936279296875
1782891397018668300,5.594668212890625,-0.6566925048828125,-0.386077880859375,-0.0202789306640625
1782891397028690200,5.604690185546875,-0.645904541015625,-0.394378662109375,-0.021087646484375
1782891397038712300,5.61471240234375,-0.641632080078125,-0.4019012451171875,-0.03363037109375
1782891397048734200,5.624734130859375,-0.646881103515625,-0.4015350341796875,-0.044464111328125
1782891397058756000,5.634756103515625,-0.66046142578125,-0.3973541259765625,-0.049468994140625
1782891397068778200,5.6447783203125,-0.684783935546875,-0.3916473388671875,-0.04547119140625
1782891397078800100,5.654800048828125,-0.7117919921875,-0.385467529296875,-0.0333251953125
1782891397088822000,5.664822021484375,-0.73480224609375,-0.37603759765625,-0.016632080078125
1782891397098844400,5.674844482421875,-0.7418365478515625,-0.36676025390625,0.001953125
1782891397108865300,5.684865234375,-0.7512664794921875,-0.364715576171875,0.016387939453125
1782891397118887200,5.69488720703125,-0.765777587890625,-0.366485595703125,0.030364990234375
1782891397128909000,5.704908935546875,-0.7819976806640625,-0.3674163818359375,0.0430755615234375
1782891397138931200,5.71493115234375,-0.800872802734375,-0.372802734375,0.0608978271484375
1782891397148953000,5.724953125,-0.82940673828125,-0.381988525390625,0.0746612548828125
1782891397158975200,5.734975341796875,-0.8649749755859375,-0.3901214599609375,0.0857391357421875
1782891397168997400,5.744997314453125,-0.9066619873046875,-0.404296875,0.096221923828125
1782891397179019300,5.755019287109375,-0.9496917724609375,-0.4180755615234375,0.106964111328125
1782891397189041200,5.765041259765625,-0.98651123046875,-0.4326019287109375,0.12249755859375
1782891397199063300,5.775063232421875,-1.0173492431640625,-0.4506378173828125,0.1416015625
1782891397209085200,5.785085205078125,-1.0335235595703125,-0.4638214111328125,0.15643310546875
1782891397219107000,5.795107177734375,-1.0393524169921875,-0.464935302734375,0.1671295166015625
1782891397229129200,5.805129150390625,-1.0449981689453125,-0.456451416015625,0.182098388671875
1782891397239151400,5.8151513671875,-1.061431884765625,-0.45355224609375,0.213592529296875
1782891397249173200,5.82517333984375,-1.0839691162109375,-0.451507568359375,0.2581024169921875
1782891397259194000,5.835194091796875,-1.10614013671875,-0.44354248046875,0.3051605224609375
1782891397269216300,5.84521630859375,-1.122833251953125,-0.4287567138671875,0.3373260498046875
1782891397279238100,5.855238037109375,-1.1313934326171875,-0.409637451171875,0.3404083251953125
1782891397289260000,5.865260009765625,-1.1300811767578125,-0.385498046875,0.31634521484375
1782891397299282400,5.875282470703125,-1.1266632080078125,-0.372161865234375,0.2733154296875
1782891397309304300,5.88530419921875,-1.1327667236328125,-0.3813323974609375,0.2251434326171875
1782891397319326200,5.895326171875,-1.141357421875,-0.3914794921875,0.1833038330078125
1782891397329348000,5.90534814453125,-1.1440582275390625,-0.39788818359375,0.1446380615234375
1782891397339370200,5.915370361328125,-1.148040771484375,-0.4034271240234375,0.1168670654296875
1782891397349392100,5.92539208984375,-1.1544647216796875,-0.4038238525390625,0.0995025634765625
1782891397359414000,5.9354140625,-1.1584014892578125,-0.4016876220703125,0.10595703125
1782891397369436200,5.945436279296875,-1.1521759033203125,-0.4133148193359375,0.155914306640625
1782891397379458300,5.955458251953125,-1.1238861083984375,-0.432373046875,0.2214508056640625
1782891397389479200,5.965479248046875,-1.0825042724609375,-0.443206787109375,0.2704010009765625
1782891397399501000,5.9755009765625,-1.05352783203125,-0.4682159423828125,0.31341552734375
1782891397409523200,5.985523193359375,-1.0206146240234375,-0.478515625,0.3202667236328125
1782891397419545000,5.995545166015625,-0.9759979248046875,-0.4546051025390625,0.2822265625
1782891397429567000,6.00556689453125,-0.9380645751953125,-0.4307708740234375,0.243438720703125
1782891397439589400,6.01558935546875,-0.91485595703125,-0.4058380126953125,0.2063140869140625
1782891397449611500,6.025611572265625,-0.9110107421875,-0.3768157958984375,0.18157958984375
1782891397459633400,6.03563330078125,-0.929229736328125,-0.345550537109375,0.16766357421875
1782891397469655300,6.0456552734375,-0.9682769775390625,-0.3022308349609375,0.1575775146484375
1782891397479677400,6.055677490234375,-1.012481689453125,-0.2536163330078125,0.1493377685546875
1782891397489699300,6.06569921875,-1.0483551025390625,-0.216552734375,0.1690826416015625
1782891397499721200,6.07572119140625,-1.068084716796875,-0.1852264404296875,0.20849609375
1782891397509743000,6.0857431640625,-1.0727081298828125,-0.1564483642578125,0.2537078857421875
1782891397519765500,6.095765625,-1.055694580078125,-0.135528564453125,0.2980499267578125
1782891397529786400,6.105786376953125,-1.0163726806640625,-0.121429443359375,0.3360137939453125
1782891397539808300,6.115808349609375,-0.9614715576171875,-0.1173553466796875,0.3537445068359375
1782891397549830400,6.125830322265625,-0.901336669921875,-0.1297454833984375,0.356109619140625
1782891397559852300,6.135852294921875,-0.8482513427734375,-0.1475067138671875,0.342926025390625
1782891397569874200,6.145874267578125,-0.8222808837890625,-0.166351318359375,0.3197021484375
1782891397579896300,6.155896240234375,-0.827972412109375,-0.1852264404296875,0.2913665771484375
1782891397589918500,6.16591845703125,-0.8583221435546875,-0.1994476318359375,0.253448486328125
1782891397599940400,6.1759404296875,-0.90655517578125,-0.20391845703125,0.2122039794921875
1782891397609962200,6.185962158203125,-0.9506683349609375,-0.1968536376953125,0.17999267578125
1782891397619984400,6.195984375,-0.99627685546875,-0.17950439453125,0.1577911376953125
1782891397630006300,6.20600634765625,-1.0414276123046875,-0.16241455078125,0.1358184814453125
1782891397640028200,6.216028076171875,-1.0827484130859375,-0.1379852294921875,0.1143798828125
1782891397650050300,6.22605029296875,-1.1055908203125,-0.1170654296875,0.0966796875
1782891397660072400,6.236072509765625,-1.114990234375,-0.0941162109375,0.0807952880859375
1782891397670093300,6.24609326171875,-1.10784912109375,-0.07220458984375,0.0587310791015625
1782891397680115200,6.256115234375,-1.0888824462890625,-0.060943603515625,0.0414886474609375
1782891397690137300,6.266137451171875,-1.0605316162109375,-0.0577392578125,0.021148681640625
1782891397700159200,6.2761591796875,-1.0218963623046875,-0.0629425048828125,0.002471923828125
1782891397710181000,6.28618115234375,-0.977813720703125,-0.0780181884765625,-0.019073486328125
1782891397720203500,6.29620361328125,-0.9333953857421875,-0.1028289794921875,-0.0424652099609375
1782891397730225400,6.306225341796875,-0.890869140625,-0.134002685546875,-0.063720703125
1782891397740247300,6.316247314453125,-0.85931396484375,-0.1649017333984375,-0.0852813720703125
1782891397750269400,6.32626953125,-0.8382415771484375,-0.19244384765625,-0.1150360107421875
1782891397760291300,6.336291259765625,-0.8310699462890625,-0.21661376953125,-0.146575927734375
1782891397770313200,6.346313232421875,-0.8348388671875,-0.24163818359375,-0.174163818359375
1782891397780335400,6.35633544921875,-0.8472137451171875,-0.2733154296875,-0.193328857421875
1782891397790357200,6.366357177734375,-0.85980224609375,-0.302978515625,-0.204071044921875
1782891397800379400,6.37637939453125,-0.8673095703125,-0.3295745849609375,-0.2082672119140625
1782891397810400300,6.386400146484375,-0.861328125,-0.34271240234375,-0.208648681640625
1782891397820422400,6.39642236328125,-0.8520355224609375,-0.34759521484375,-0.2074737548828125
1782891397830444300,6.4064443359375,-0.8445281982421875,-0.3463134765625,-0.2002716064453125
1782891397840466200,6.416466064453125,-0.8414306640625,-0.34417724609375,-0.1927642822265625
1782891397850488300,6.42648828125,-0.848907470703125,-0.3369598388671875,-0.18878173828125
1782891397860510500,6.436510498046875,-0.86663818359375,-0.3350982666015625,-0.1838531494140625
1782891397870532400,6.446532470703125,-0.8854522705078125,-0.3372344970703125,-0.18170166015625
1782891397880554500,6.456554443359375,-0.8984375,-0.3336639404296875,-0.186370849609375
1782891397890576400,6.466576416015625,-0.9092864990234375,-0.3395538330078125,-0.1802978515625
1782891397900598300,6.476598388671875,-0.9133453369140625,-0.3519439697265625,-0.16925048828125
1782891397910620200,6.4866201171875,-0.908294677734375,-0.3762359619140625,-0.148651123046875
1782891397920642300,6.496642333984375,-0.8920440673828125,-0.42315673828125,-0.10931396484375
1782891397930664200,6.506664306640625,-0.8570404052734375,-0.46234130859375,-0.087066650390625
1782891397940685300,6.516685302734375,-0.81414794921875,-0.4714202880859375,-0.097991943359375
1782891397950707500,6.52670751953125,-0.7768402099609375,-0.4722137451171875,-0.1240692138671875
1782891397960729300,6.536729248046875,-0.7544097900390625,-0.4874725341796875,-0.155609130859375
1782891397970751200,6.546751220703125,-0.744537353515625,-0.4953765869140625,-0.180938720703125
1782891397980773000,6.556773193359375,-0.7529449462890625,-0.4925537109375,-0.1975250244140625
1782891397990795300,6.566795166015625,-0.793975830078125,-0.468780517578125,-0.20166015625
1782891398000817400,6.5768173828125,-0.869232177734375,-0.4231719970703125,-0.187347412109375
1782891398010839300,6.58683935546875,-0.960296630859375,-0.3669891357421875,-0.1478729248046875
1782891398020861400,6.596861328125,-1.0399169921875,-0.3208770751953125,-0.0954437255859375
1782891398030883300,6.60688330078125,-1.1052398681640625,-0.2778472900390625,-0.0411376953125
1782891398040905200,6.6169052734375,-1.1429443359375,-0.244171142578125,0.0192108154296875
1782891398050927400,6.62692724609375,-1.1543121337890625,-0.22296142578125,0.077178955078125
1782891398060949200,6.63694921875,-1.14080810546875,-0.21270751953125,0.125
1782891398070971100,6.64697119140625,-1.1072540283203125,-0.2091827392578125,0.152374267578125
1782891398080992300,6.6569921875,-1.070465087890625,-0.2229461669921875,0.1652984619140625
1782891398091014400,6.667014404296875,-1.0403289794921875,-0.253082275390625,0.16485595703125
1782891398101036300,6.677036376953125,-1.016082763671875,-0.2853240966796875,0.1578369140625
1782891398111058200,6.68705810546875,-1.0025177001953125,-0.3147735595703125,0.14886474609375
1782891398121080300,6.697080322265625,-0.9942474365234375,-0.3387298583984375,0.1383056640625
1782891398131102200,6.707102294921875,-0.9862518310546875,-0.3489227294921875,0.131256103515625
1782891398141124400,6.717124267578125,-0.9866943359375,-0.350860595703125,0.130218505859375
1782891398151146500,6.727146484375,-0.9988250732421875,-0.3449249267578125,0.137176513671875
1782891398161168400,6.73716845703125,-1.0233612060546875,-0.331817626953125,0.143096923828125
1782891398171190300,6.747190185546875,-1.0501251220703125,-0.3159027099609375,0.1452789306640625
1782891398181212400,6.75721240234375,-1.0700225830078125,-0.301116943359375,0.139923095703125
1782891398191234300,6.767234375,-1.076934814453125,-0.2965850830078125,0.12860107421875
1782891398201256200,6.777256103515625,-1.0686492919921875,-0.2962646484375,0.1084747314453125
1782891398211278300,6.7872783203125,-1.04864501953125,-0.2952423095703125,0.084320068359375
1782891398221299500,6.797299560546875,-1.0233612060546875,-0.293914794921875,0.07110595703125
1782891398231321300,6.8073212890625,-0.9988555908203125,-0.2865142822265625,0.054107666015625
1782891398241343200,6.81734326171875,-0.982147216796875,-0.2782745361328125,0.0444488525390625
1782891398251365400,6.827365478515625,-0.97210693359375,-0.272674560546875,0.0402374267578125
1782891398261387300,6.83738720703125,-0.967254638671875,-0.26702880859375,0.0391387939453125
1782891398271409200,6.8474091796875,-0.961273193359375,-0.2652740478515625,0.0446929931640625
1782891398281431600,6.857431640625,-0.9563446044921875,-0.266815185546875,0.05072021484375
1782891398291453400,6.867453369140625,-0.94818115234375,-0.2744293212890625,0.0491790771484375
1782891398301475300,6.877475341796875,-0.9383544921875,-0.2884674072265625,0.0420989990234375
1782891398311497200,6.887497314453125,-0.9244842529296875,-0.30645751953125,0.03253173828125
1782891398321519400,6.897519287109375,-0.906005859375,-0.322265625,0.022918701171875
1782891398331541200,6.907541259765625,-0.8820343017578125,-0.33648681640625,0.0140838623046875
1782891398341563100,6.917563232421875,-0.8636322021484375,-0.3461151123046875,0.006439208984375
1782891398351584500,6.92758447265625,-0.8571319580078125,-0.3540191650390625,0.00604248046875
1782891398361606400,6.9376064453125,-0.8708343505859375,-0.36444091796875,0.0098876953125
1782891398371628300,6.947628173828125,-0.8908233642578125,-0.3710174560546875,0.0145111083984375
1782891398381650200,6.957650146484375,-0.9133453369140625,-0.3736114501953125,0.0266876220703125
1782891398391672300,6.96767236328125,-0.93682861328125,-0.375152587890625,0.040924072265625
1782891398401694200,6.977694091796875,-0.9526519775390625,-0.36932373046875,0.04803466796875
1782891398411716000,6.987716064453125,-0.9627227783203125,-0.3655853271484375,0.05096435546875
1782891398421738500,6.997738525390625,-0.9727935791015625,-0.3621368408203125,0.0499420166015625
1782891398431760400,7.007760498046875,-0.9874420166015625,-0.3541412353515625,0.047607421875
1782891398441782500,7.017782470703125,-1.0055999755859375,-0.3490447998046875,0.0442962646484375
1782891398451804400,7.027804443359375,-1.0308074951171875,-0.3571624755859375,0.0525360107421875
1782891398461826600,7.03782666015625,-1.0608978271484375,-0.3827667236328125,0.077423095703125
1782891398471848400,7.047848388671875,-1.08642578125,-0.4230194091796875,0.1121826171875
1782891398481870300,7.057870361328125,-1.09686279296875,-0.4571990966796875,0.14306640625
1782891398491891500,7.067891357421875,-1.089996337890625,-0.478973388671875,0.1611785888671875
1782891398501913600,7.07791357421875,-1.0590362548828125,-0.473846435546875,0.1533203125
1782891398511935500,7.087935546875,-1.0214385986328125,-0.44989013671875,0.115203857421875
1782891398521957400,7.097957275390625,-0.993011474609375,-0.4378509521484375,0.0783538818359375
1782891398531979500,7.1079794921875,-0.9733428955078125,-0.441864013671875,0.0426483154296875
1782891398542001400,7.11800146484375,-0.9694061279296875,-0.4495849609375,0.000030517578125
1782891398552023300,7.128023193359375,-0.9779815673828125,-0.451995849609375,-0.0326080322265625
1782891398562045400,7.13804541015625,-0.991851806640625,-0.44781494140625,-0.0443878173828125
1782891398572067600,7.148067626953125,-1.0092315673828125,-0.42376708984375,-0.0328216552734375
1782891398582089500,7.15808935546875,-1.0241241455078125,-0.379730224609375,-0.0015869140625
1782891398592111400,7.168111328125,-1.0348052978515625,-0.33306884765625,0.0428619384765625
1782891398602133500,7.178133544921875,-1.0437774658203125,-0.298553466796875,0.0854339599609375
1782891398612155400,7.1881552734375,-1.0455322265625,-0.273101806640625,0.11883544921875
1782891398622176500,7.198176513671875,-1.0399627685546875,-0.2548828125,0.1435394287109375
1782891398632198400,7.208198486328125,-1.0246734619140625,-0.2505950927734375,0.1659698486328125
1782891398642220500,7.218220458984375,-0.9915008544921875,-0.24951171875,0.1821441650390625
1782891398652242400,7.228242431640625,-0.93701171875,-0.2523651123046875,0.1948699951171875
1782891398662264300,7.238264404296875,-0.867034912109375,-0.260284423828125,0.201812744140625
1782891398672286500,7.248286376953125,-0.8055877685546875,-0.267364501953125,0.2001495361328125
1782891398682308400,7.258308349609375,-0.757293701171875,-0.2783050537109375,0.1927032470703125
1782891398692330200,7.268330322265625,-0.7188262939453125,-0.2875823974609375,0.1838836669921875
1782891398702352600,7.2783525390625,-0.6924896240234375,-0.29248046875,0.1771087646484375
1782891398712374500,7.28837451171875,-0.6845703125,-0.2990875244140625,0.1690673828125
1782891398722396400,7.298396484375,-0.6980743408203125,-0.305419921875,0.1647186279296875
1782891398732418600,7.30841845703125,-0.7249603271484375,-0.3064727783203125,0.1585235595703125
1782891398742440400,7.3184404296875,-0.7656707763671875,-0.308441162109375,0.155975341796875
1782891398752462300,7.32846240234375,-0.80633544921875,-0.305206298828125,0.1523284912109375
1782891398762483500,7.3384833984375,-0.83795166015625,-0.3007354736328125,0.150360107421875
1782891398772505600,7.348505615234375,-0.8567352294921875,-0.295166015625,0.148345947265625
1782891398782527500,7.358527587890625,-0.862274169921875,-0.28790283203125,0.1432647705078125
1782891398792549400,7.36854931640625,-0.8551177978515625,-0.2824249267578125,0.1347808837890625
1782891398802571500,7.378571533203125,-0.8419036865234375,-0.279052734375,0.12432861328125
1782891398812593400,7.388593505859375,-0.8238067626953125,-0.277191162109375,0.11700439453125
1782891398822615300,7.398615234375,-0.8031158447265625,-0.2770233154296875,0.10723876953125
1782891398832637400,7.408637451171875,-0.784393310546875,-0.2775726318359375,0.09930419921875
1782891398842659600,7.41865966796875,-0.7720947265625,-0.277069091796875,0.0938262939453125
1782891398852681500,7.428681396484375,-0.77105712890625,-0.2827606201171875,0.092041015625
1782891398862703600,7.43870361328125,-0.7772064208984375,-0.293914794921875,0.09014892578125
1782891398872725500,7.4487255859375,-0.7900238037109375,-0.3038177490234375,0.080902099609375
1782891398882747400,7.458747314453125,-0.801300048828125,-0.313812255859375,0.0707244873046875
1782891398892768300,7.468768310546875,-0.8112030029296875,-0.3220062255859375,0.0589447021484375
1782891398902790700,7.478790771484375,-0.823272705078125,-0.3275604248046875,0.037628173828125
1782891398912812500,7.4888125,-0.8318023681640625,-0.3331146240234375,0.014068603515625
1782891398922834400,7.49883447265625,-0.8377227783203125,-0.3356170654296875,-0.0034637451171875
1782891398932856600,7.508856689453125,-0.8454742431640625,-0.3326263427734375,-0.021484375
1782891398942878500,7.51887841796875,-0.85723876953125,-0.3262939453125,-0.033966064453125
1782891398952900400,7.528900390625,-0.8764495849609375,-0.3178253173828125,-0.0485076904296875
1782891398962922200,7.538922119140625,-0.89971923828125,-0.311004638671875,-0.0607147216796875
1782891398972944400,7.5489443359375,-0.92279052734375,-0.301788330078125,-0.0681304931640625
1782891398982966500,7.558966552734375,-0.94537353515625,-0.2962493896484375,-0.0738067626953125
1782891398992988400,7.568988525390625,-0.96295166015625,-0.291015625,-0.0780487060546875
1782891399003010600,7.579010498046875,-0.9847412109375,-0.291259765625,-0.081451416015625
1782891399013032400,7.589032470703125,-1.0067901611328125,-0.28729248046875,-0.0892181396484375
1782891399023054300,7.599054443359375,-1.0247039794921875,-0.280181884765625,-0.100433349609375
1782891399033075500,7.609075439453125,-1.049285888671875,-0.27618408203125,-0.1104888916015625
1782891399043097600,7.61909765625,-1.0812835693359375,-0.2739105224609375,-0.1219024658203125
1782891399053119500,7.629119384765625,-1.117156982421875,-0.2745208740234375,-0.139251708984375
1782891399063141400,7.639141357421875,-1.1495513916015625,-0.2942962646484375,-0.1344451904296875
1782891399073163500,7.64916357421875,-1.1787109375,-0.3364105224609375,-0.1025848388671875
1782891399083185400,7.659185302734375,-1.1878204345703125,-0.37786865234375,-0.07928466796875
1782891399093207300,7.669207275390625,-1.1707763671875,-0.3872528076171875,-0.0948028564453125
1782891399103229400,7.6792294921875,-1.1465606689453125,-0.368377685546875,-0.1471405029296875
1782891399113251300,7.689251220703125,-1.1258544921875,-0.3422088623046875,-0.20391845703125
1782891399123273500,7.6992734375,-1.1055908203125,-0.308929443359375,-0.2550201416015625
1782891399133295600,7.709295654296875,-1.094818115234375,-0.266632080078125,-0.3038177490234375
1782891399143317500,7.7193173828125,-1.1032257080078125,-0.2215576171875,-0.3380279541015625
1782891399153339400,7.72933935546875,-1.129791259765625,-0.1750030517578125,-0.3590087890625
1782891399163361500,7.739361572265625,-1.16851806640625,-0.12939453125,-0.3600616455078125
1782891399173382400,7.74938232421875,-1.211578369140625,-0.095703125,-0.3521728515625
1782891399183404500,7.759404541015625,-1.243194580078125,-0.067779541015625,-0.34405517578125
1782891399193426400,7.769426513671875,-1.259796142578125,-0.0500640869140625,-0.3362579345703125
1782891399203448600,7.779448486328125,-1.2688140869140625,-0.0487213134765625,-0.3232574462890625
1782891399213470500,7.789470458984375,-1.2534637451171875,-0.0593414306640625,-0.3055572509765625
1782891399223492400,7.799492431640625,-1.1959228515625,-0.0777435302734375,-0.279998779296875
1782891399233514500,7.809514404296875,-1.123870849609375,-0.1039886474609375,-0.24346923828125
1782891399243536400,7.819536376953125,-1.0435638427734375,-0.12353515625,-0.22357177734375
1782891399253558300,7.829558349609375,-0.9443511962890625,-0.134521484375,-0.2240447998046875
1782891399263580700,7.83958056640625,-0.8592529296875,-0.1480712890625,-0.2225494384765625
1782891399273602600,7.8496025390625,-0.7940216064453125,-0.177581787109375,-0.2167510986328125
1782891399283624400,7.85962451171875,-0.7588958740234375,-0.2097625732421875,-0.2252349853515625
1782891399293646300,7.869646240234375,-0.7575531005859375,-0.2336578369140625,-0.2484893798828125
1782891399303667500,7.87966748046875,-0.7776947021484375,-0.249053955078125,-0.2815399169921875
1782891399313689300,7.889689453125,-0.809234619140625,-0.2454681396484375,-0.315277099609375
1782891399323711500,7.89971142578125,-0.8473968505859375,-0.232696533203125,-0.33514404296875
1782891399333733600,7.909733642578125,-0.891326904296875,-0.2134246826171875,-0.3427581787109375
1782891399343755500,7.919755615234375,-0.931549072265625,-0.1889190673828125,-0.337188720703125
1782891399353777400,7.92977734375,-0.958984375,-0.169189453125,-0.3274078369140625
1782891399363799600,7.939799560546875,-0.9676666259765625,-0.152099609375,-0.3105926513671875
1782891399373821400,7.949821533203125,-0.9565582275390625,-0.139129638671875,-0.2889862060546875
1782891399383843300,7.95984326171875,-0.9247283935546875,-0.1282958984375,-0.2645111083984375
1782891399393865500,7.969865478515625,-0.8827972412109375,-0.12579345703125,-0.2375030517578125
1782891399403887600,7.9798876953125,-0.8402252197265625,-0.1283416748046875,-0.21551513671875
1782891399413909500,7.989909423828125,-0.8043670654296875,-0.1324462890625,-0.1943206787109375
1782891399423931400,7.999931396484375,-0.777587890625,-0.1421356201171875,-0.17559814453125
1782891399433952500,8.009952392578125,-0.75537109375,-0.154632568359375,-0.1575927734375
1782891399443974400,8.019974365234376,-0.738616943359375,-0.1644439697265625,-0.1465301513671875
1782891399453996500,8.02999658203125,-0.7226104736328125,-0.1709747314453125,-0.1333770751953125
1782891399464018400,8.040018310546875,-0.7121429443359375,-0.1804351806640625,-0.11279296875
1782891399474040600,8.05004052734375,-0.7101898193359375,-0.1929779052734375,-0.088165283203125
1782891399484062500,8.0600625,-0.717071533203125,-0.2042694091796875,-0.0664825439453125
1782891399494084400,8.07008447265625,-0.73541259765625,-0.22064208984375,-0.050506591796875
1782891399504106500,8.0801064453125,-0.7621002197265625,-0.239654541015625,-0.040985107421875
1782891399514128400,8.09012841796875,-0.7867584228515625,-0.25201416015625,-0.0416107177734375
1782891399524150300,8.100150390625,-0.806182861328125,-0.259918212890625,-0.0525970458984375
1782891399534172400,8.11017236328125,-0.823028564453125,-0.26800537109375,-0.0760650634765625
1782891399544194600,8.120194580078126,-0.836822509765625,-0.2703857421875,-0.1149749755859375
1782891399554216400,8.130216552734375,-0.85040283203125,-0.2697906494140625,-0.1618194580078125
1782891399564237300,8.1402373046875,-0.8657684326171875,-0.2726593017578125,-0.2039947509765625
1782891399574259500,8.150259521484376,-0.8846282958984375,-0.2757568359375,-0.2418060302734375
1782891399584281300,8.16028125,-0.903106689453125,-0.2764739990234375,-0.2644805908203125
1782891399594303500,8.170303466796875,-0.925506591796875,-0.284423828125,-0.26373291015625
1782891399604325600,8.18032568359375,-0.9453582763671875,-0.278594970703125,-0.26202392578125
1782891399614347500,8.190347412109375,-0.972747802734375,-0.2583465576171875,-0.2716217041015625
1782891399624369400,8.200369384765626,-1.0162811279296875,-0.233062744140625,-0.2839202880859375
1782891399634391600,8.2103916015625,-1.066009521484375,-0.2078857421875,-0.28778076171875
1782891399644413400,8.220413330078125,-1.1303863525390625,-0.1926727294921875,-0.2815093994140625
1782891399654435300,8.230435302734374,-1.2100982666015625,-0.2058563232421875,-0.2509613037109375
1782891399664457500,8.24045751953125,-1.2880706787109375,-0.2470855712890625,-0.2159881591796875
1782891399674479400,8.250479248046876,-1.322265625,-0.2655792236328125,-0.210601806640625
1782891399684501500,8.26050146484375,-1.2808685302734375,-0.2558441162109375,-0.21636962890625
1782891399694522400,8.2705224609375,-1.22186279296875,-0.2372894287109375,-0.233917236328125
1782891399704544500,8.28054443359375,-1.1508636474609375,-0.2043914794921875,-0.2682037353515625
1782891399714566400,8.29056640625,-1.08935546875,-0.1837158203125,-0.2829742431640625
1782891399724588300,8.30058837890625,-1.0485992431640625,-0.168609619140625,-0.294891357421875
1782891399734610400,8.3106103515625,-1.0380401611328125,-0.1524200439453125,-0.3333587646484375
1782891399744632600,8.320632568359375,-1.0467987060546875,-0.11566162109375,-0.3780975341796875
1782891399754654500,8.330654541015624,-1.0597076416015625,-0.064300537109375,-0.3990325927734375
1782891399764676600,8.340676513671875,-1.07330322265625,-0.0199432373046875,-0.377960205078125
1782891399774698500,8.350698486328126,-1.093170166015625,0.009857177734375,-0.3282318115234375
1782891399784720400,8.360720458984375,-1.1128997802734375,0.0357666015625,-0.2735137939453125
1782891399794742300,8.3707421875,-1.128265380859375,0.03271484375,-0.2125244140625
1782891399804764400,8.380764404296874,-1.128509521484375,0.01531982421875,-0.13238525390625
1782891399814786600,8.39078662109375,-1.114532470703125,-0.0103759765625,-0.052001953125
1782891399824808400,8.400808349609376,-1.102874755859375,-0.0424041748046875,0.009918212890625
1782891399834829600,8.41082958984375,-1.0863189697265625,-0.072174072265625,0.0479278564453125
1782891399844851500,8.4208515625,-1.073272705078125,-0.09613037109375,0.0451812744140625
1782891399854873300,8.430873291015626,-1.0571746826171875,-0.127288818359375,0.031005859375
1782891399864895200,8.440895263671875,-1.056884765625,-0.1622161865234375,0.0135955810546875
1782891399874917600,8.450917724609376,-1.0686187744140625,-0.189300537109375,-0.014251708984375
1782891399884939500,8.460939453125,-1.0804901123046875,-0.2058868408203125,-0.0362396240234375
1782891399894961400,8.47096142578125,-1.0934906005859375,-0.21112060546875,-0.0405426025390625
1782891399904983600,8.480983642578124,-1.1051177978515625,-0.194976806640625,-0.0396270751953125
1782891399915005400,8.49100537109375,-1.1147918701171875,-0.16339111328125,-0.0286712646484375
1782891399925027300,8.50102734375,-1.1199951171875,-0.128021240234375,-0.0052337646484375
1782891399935049500,8.511049560546875,-1.119964599609375,-0.099639892578125,0.02081298828125
1782891399945071400,8.5210712890625,-1.114959716796875,-0.0835418701171875,0.0508575439453125
1782891399955093500,8.531093505859374,-1.10699462890625,-0.07586669921875,0.075347900390625
1782891399965114400,8.5411142578125,-1.094024658203125,-0.0754852294921875,0.1034088134765625
1782891399975136500,8.551136474609375,-1.07965087890625,-0.082855224609375,0.1328277587890625
1782891399985158400,8.561158447265624,-1.0568084716796875,-0.0887298583984375,0.15240478515625
1782891399995180300,8.57118017578125,-1.023956298828125,-0.09796142578125,0.168304443359375
1782891400005202400,8.581202392578126,-0.9792022705078125,-0.0998382568359375,0.169586181640625
1782891400015224600,8.591224609375,-0.9304351806640625,-0.1248931884765625,0.17401123046875
1782891400025246500,8.60124658203125,-0.8928375244140625,-0.1472015380859375,0.17449951171875
1782891400035268600,8.6112685546875,-0.86773681640625,-0.1668548583984375,0.1670684814453125
1782891400045290500,8.62129052734375,-0.8477325439453125,-0.1722259521484375,0.1490020751953125
1782891400055312400,8.6313125,-0.843292236328125,-0.1884918212890625,0.123199462890625
1782891400065334500,8.64133447265625,-0.8568115234375,-0.201690673828125,0.09674072265625
1782891400075356400,8.6513564453125,-0.884124755859375,-0.1971893310546875,0.05621337890625
1782891400085378300,8.66137841796875,-0.9120635986328125,-0.19268798828125,0.02508544921875
1782891400095400400,8.671400390625,-0.9279022216796875,-0.1896514892578125,0.0106201171875
1782891400105421600,8.681421630859376,-0.9344940185546875,-0.1846466064453125,0.005096435546875
1782891400115443500,8.691443359375,-0.93017578125,-0.179840087890625,0.009979248046875
1782891400125465300,8.70146533203125,-0.9181365966796875,-0.1767425537109375,0.0136260986328125
1782891400135487500,8.711487548828124,-0.9043121337890625,-0.179290771484375,0.0151824951171875
1782891400145509400,8.72150927734375,-0.8955841064453125,-0.1862640380859375,0.0177764892578125
1782891400155531500,8.731531494140626,-0.8839874267578125,-0.1941986083984375,0.0168609619140625
1782891400165553700,8.7415537109375,-0.8710174560546875,-0.19952392578125,0.01470947265625
1782891400175575600,8.751575439453125,-0.8546142578125,-0.2010955810546875,0.0045928955078125
1782891400185597400,8.761597412109374,-0.839996337890625,-0.20220947265625,-0.0090179443359375
1782891400195619300,8.771619384765625,-0.8310546875,-0.207855224609375,-0.0213165283203125
1782891400205641500,8.781641357421876,-0.81927490234375,-0.213836669921875,-0.035369873046875
1782891400215663400,8.791663330078125,-0.8079376220703125,-0.21856689453125,-0.0460357666015625
1782891400225685200,8.801685302734375,-0.807159423828125,-0.22967529296875,-0.0660858154296875
1782891400235706600,8.81170654296875,-0.819580078125,-0.235137939453125,-0.0943450927734375
1782891400245728500,8.821728515625,-0.84417724609375,-0.2360687255859375,-0.1265106201171875
1782891400255750400,8.83175048828125,-0.8845367431640625,-0.23077392578125,-0.1534576416015625
1782891400265772300,8.841772216796874,-0.934722900390625,-0.2327423095703125,-0.1708221435546875
1782891400275794400,8.85179443359375,-0.9918212890625,-0.2625732421875,-0.1515350341796875
1782891400285816300,8.86181640625,-1.021514892578125,-0.2911834716796875,-0.1379547119140625
1782891400295838500,8.87183837890625,-1.0278472900390625,-0.28179931640625,-0.1680145263671875
1782891400305860600,8.881860595703126,-1.0408172607421875,-0.2579498291015625,-0.2209320068359375
1782891400315882500,8.891882568359375,-1.067230224609375,-0.2381591796875,-0.262603759765625
1782891400325904400,8.901904296875,-1.0918426513671875,-0.2176513671875,-0.28863525390625
1782891400335926500,8.911926513671874,-1.1190643310546875,-0.1905670166015625,-0.30133056640625
1782891400345948400,8.921948486328125,-1.1499786376953125,-0.158416748046875,-0.3105010986328125
1782891400355970300,8.93197021484375,-1.1910858154296875,-0.122772216796875,-0.3130035400390625
1782891400365991400,8.941991455078124,-1.2271728515625,-0.080718994140625,-0.30218505859375
1782891400376013600,8.952013671875,-1.2505340576171875,-0.0458526611328125,-0.2738189697265625
1782891400386035500,8.962035400390626,-1.2530670166015625,-0.0308074951171875,-0.2278900146484375
1782891400396057300,8.972057373046875,-1.2536468505859375,-0.03558349609375,-0.179718017578125
1782891400406079500,8.98207958984375,-1.2386322021484375,-0.049560546875,-0.14215087890625
1782891400416101400,8.992101318359374,-1.1753082275390625,-0.0666351318359375,-0.108001708984375
1782891400426123300,9.002123291015625,-1.079833984375,-0.088409423828125,-0.088897705078125
1782891400436145700,9.012145751953126,-0.981903076171875,-0.108978271484375,-0.0749359130859375
1782891400446166800,9.022166748046875,-0.9072418212890625,-0.1311492919921875,-0.0703887939453125
1782891400456188700,9.032188720703125,-0.8596649169921875,-0.153961181640625,-0.0712432861328125
1782891400466210600,9.04221044921875,-0.836761474609375,-0.17938232421875,-0.0631561279296875
1782891400476232700,9.052232666015625,-0.835968017578125,-0.20855712890625,-0.0485076904296875
1782891400486254600,9.062254638671876,-0.8527069091796875,-0.2308197021484375,-0.0343780517578125
1782891400496275700,9.072275634765624,-0.86761474609375,-0.2457733154296875,-0.0231170654296875
1782891400506297600,9.082297607421875,-0.8760986328125,-0.253631591796875,-0.0106201171875
1782891400516319700,9.09231982421875,-0.884124755859375,-0.2551116943359375,0.0030975341796875
1782891400526341600,9.102341552734375,-0.8892669677734375,-0.2509307861328125,0.0196685791015625
1782891400536363500,9.112363525390625,-0.8966064453125,-0.245361328125,0.0294952392578125
1782891400546385700,9.1223857421875,-0.899658203125,-0.239715576171875,0.0337066650390625
1782891400556407800,9.13240771484375,-0.8888702392578125,-0.226043701171875,0.028289794921875
1782891400566429700,9.1424296875,-0.870758056640625,-0.2140655517578125,0.02252197265625
1782891400576451800,9.152451904296875,-0.8480987548828125,-0.204986572265625,0.0150146484375
1782891400586473700,9.1624736328125,-0.8406982421875,-0.1981201171875,-0.0010223388671875
1782891400596495600,9.17249560546875,-0.850982666015625,-0.2015228271484375,-0.0161895751953125
1782891400606517800,9.182517822265625,-0.86822509765625,-0.2064361572265625,-0.03387451171875
1782891400616539600,9.19253955078125,-0.887939453125,-0.20758056640625,-0.0524139404296875
1782891400626560800,9.202560791015625,-0.9076690673828125,-0.2069854736328125,-0.062286376953125
1782891400636582700,9.212582763671875,-0.9271697998046875,-0.2031707763671875,-0.065948486328125
1782891400646604800,9.222604736328124,-0.93780517578125,-0.19757080078125,-0.06549072265625
1782891400656626700,9.232626708984375,-0.9402313232421875,-0.195281982421875,-0.0542449951171875
1782891400666648600,9.242648681640626,-0.93121337890625,-0.199493408203125,-0.04180908203125
1782891400676670700,9.252670654296875,-0.92059326171875,-0.2019805908203125,-0.037750244140625
1782891400686692600,9.262692626953125,-0.91064453125,-0.2061614990234375,-0.03857421875
1782891400696714800,9.27271484375,-0.907379150390625,-0.2205047607421875,-0.0386505126953125
1782891400706737000,9.28273681640625,-0.910247802734375,-0.234344482421875,-0.04107666015625
1782891400716758800,9.2927587890625,-0.9192657470703125,-0.24334716796875,-0.0423126220703125
1782891400726780700,9.30278076171875,-0.9289398193359375,-0.2522125244140625,-0.0419921875
1782891400736802800,9.312802734375,-0.933624267578125,-0.2583465576171875,-0.03875732421875
1782891400746824700,9.32282470703125,-0.92425537109375,-0.2652435302734375,-0.0320587158203125
1782891400756846600,9.3328466796875,-0.9152679443359375,-0.273956298828125,-0.028289794921875
1782891400766867700,9.34286767578125,-0.9161529541015625,-0.278564453125,-0.0335540771484375
1782891400776889900,9.352889892578125,-0.93505859375,-0.2872772216796875,-0.039337158203125
1782891400786911700,9.362911865234375,-0.9524993896484375,-0.2941741943359375,-0.04071044921875
1782891400796933600,9.37293359375,-0.968017578125,-0.3013153076171875,-0.0390777587890625
1782891400806955800,9.382955810546875,-0.984619140625,-0.3084259033203125,-0.02972412109375
1782891400816977700,9.392977783203126,-1.0091094970703125,-0.3108367919921875,-0.0210723876953125
1782891400826999600,9.40299951171875,-1.0404205322265625,-0.3042144775390625,-0.02044677734375
1782891400837021700,9.413021728515625,-1.075531005859375,-0.2953338623046875,-0.0147247314453125
1782891400847043800,9.4230439453125,-1.1105804443359375,-0.2867584228515625,-0.0089111328125
1782891400857065700,9.433065673828125,-1.153594970703125,-0.2878875732421875,0.0129241943359375
1782891400867087600,9.443087646484376,-1.2018280029296875,-0.3162384033203125,0.0521392822265625
1782891400877109800,9.45310986328125,-1.221923828125,-0.3426361083984375,0.0915679931640625
1782891400887131600,9.463131591796875,-1.2026824951171875,-0.36566162109375,0.1290130615234375
1782891400897153500,9.473153564453124,-1.1632080078125,-0.3715972900390625,0.1583251953125
1782891400907174700,9.483174560546875,-1.1233062744140625,-0.3619537353515625,0.181610107421875
1782891400917196800,9.49319677734375,-1.10443115234375,-0.3523406982421875,0.199981689453125
1782891400927218700,9.50321875,-1.1078643798828125,-0.3227996826171875,0.21258544921875
1782891400937240600,9.513240478515625,-1.1608428955078125,-0.26275634765625,0.207061767578125
1782891400947262700,9.5232626953125,-1.242462158203125,-0.184326171875,0.201080322265625
1782891400957284600,9.53328466796875,-1.3275909423828125,-0.089630126953125,0.218414306640625
1782891400967306500,9.543306396484375,-1.407073974609375,-0.0082244873046875,0.2697601318359375
1782891400977329000,9.553328857421874,-1.474945068359375,0.04351806640625,0.339080810546875
1782891400987350800,9.563350830078125,-1.5162506103515625,0.081817626953125,0.3863677978515625
1782891400997372700,9.57337255859375,-1.51373291015625,0.1139984130859375,0.4078826904296875
1782891401007394800,9.583394775390625,-1.4551239013671875,0.1360015869140625,0.4065704345703125
1782891401017416700,9.593416748046875,-1.35223388671875,0.141448974609375,0.3848419189453125
1782891401027437600,9.6034375,-1.2413177490234375,0.1309967041015625,0.3352203369140625
1782891401037459700,9.613459716796875,-1.1417388916015625,0.1038818359375,0.2660980224609375
1782891401047481900,9.62348193359375,-1.0521240234375,0.071441650390625,0.19378662109375
1782891401057503700,9.633503662109375,-0.9660186767578125,0.032135009765625,0.1336822509765625
1782891401067525600,9.643525634765625,-0.903717041015625,-0.000640869140625,0.076690673828125
1782891401077547800,9.6535478515625,-0.8715362548828125,-0.0308074951171875,0.0229339599609375
1782891401087569700,9.663569580078125,-0.862823486328125,-0.053497314453125,-0.027587890625
1782891401097591600,9.673591552734376,-0.8704833984375,-0.0692138671875,-0.0702056884765625
1782891401107613700,9.68361376953125,-0.8748016357421875,-0.07464599609375,-0.09808349609375
1782891401117635800,9.6936357421875,-0.8681182861328125,-0.07696533203125,-0.1138153076171875
1782891401127657700,9.70365771484375,-0.8509521484375,-0.07891845703125,-0.1158447265625
1782891401137680000,9.713679931640625,-0.8280792236328125,-0.077850341796875,-0.10968017578125
1782891401147701800,9.72370166015625,-0.8037567138671875,-0.07928466796875,-0.10003662109375
1782891401157722600,9.73372265625,-0.7776031494140625,-0.0886688232421875,-0.0894012451171875
1782891401167744500,9.74374462890625,-0.75836181640625,-0.100555419921875,-0.0796356201171875
1782891401177767000,9.753766845703124,-0.74169921875,-0.110748291015625,-0.075042724609375
1782891401187788800,9.763788818359375,-0.72845458984375,-0.118988037109375,-0.0738372802734375
1782891401197810700,9.773810791015626,-0.710784912109375,-0.130035400390625,-0.0756072998046875
1782891401207832800,9.783832763671874,-0.6905059814453125,-0.1400604248046875,-0.0732421875
1782891401217854700,9.793854736328125,-0.67156982421875,-0.1520843505859375,-0.0706634521484375
1782891401227876600,9.803876708984374,-0.654815673828125,-0.166107177734375,-0.067108154296875
1782891401237898500,9.8138984375,-0.648712158203125,-0.18780517578125,-0.0585784912109375
1782891401247920600,9.823920654296876,-0.6476287841796875,-0.2029266357421875,-0.0586395263671875
1782891401257942800,9.83394287109375,-0.655548095703125,-0.2181549072265625,-0.069976806640625
1782891401267964700,9.843964599609375,-0.67938232421875,-0.232421875,-0.086822509765625
1782891401277986800,9.85398681640625,-0.7142791748046875,-0.235137939453125,-0.11151123046875
1782891401288007700,9.864007568359375,-0.760894775390625,-0.2355804443359375,-0.13543701171875
1782891401298029600,9.874029541015625,-0.8188018798828125,-0.244476318359375,-0.1526641845703125
1782891401308051700,9.8840517578125,-0.8801422119140625,-0.2528533935546875,-0.1616973876953125
1782891401318073900,9.894073974609375,-0.924407958984375,-0.2574310302734375,-0.162445068359375
1782891401328095700,9.904095703125,-0.957916259765625,-0.2564849853515625,-0.155853271484375
1782891401338117600,9.91411767578125,-0.9795379638671875,-0.25146484375,-0.143829345703125
1782891401348139800,9.924139892578125,-0.9880828857421875,-0.238494873046875,-0.132415771484375
1782891401358161700,9.93416162109375,-0.9815673828125,-0.22833251953125,-0.12994384765625
1782891401368183600,9.94418359375,-0.964141845703125,-0.2252044677734375,-0.134735107421875
1782891401378205700,9.954205810546876,-0.9442291259765625,-0.233428955078125,-0.1458892822265625
1782891401388227600,9.9642275390625,-0.933868408203125,-0.2469329833984375,-0.157012939453125
1782891401398249700,9.974249755859375,-0.9422607421875,-0.2656097412109375,-0.166015625
1782891401408272000,9.98427197265625,-0.968719482421875,-0.2767486572265625,-0.176727294921875
1782891401418293800,9.994293701171875,-1.012969970703125,-0.2788543701171875,-0.18255615234375
1782891401428314600,10.004314697265626,-1.0678863525390625,-0.2924957275390625,-0.17645263671875
1782891401438336500,10.01433642578125,-1.123870849609375,-0.33905029296875,-0.140167236328125
1782891401448358700,10.024358642578125,-1.15252685546875,-0.392425537109375,-0.1008148193359375
1782891401458381000,10.034381103515624,-1.1424102783203125,-0.414886474609375,-0.101043701171875
1782891401468403000,10.04440283203125,-1.10845947265625,-0.4188232421875,-0.1219329833984375
1782891401478424800,10.0544248046875,-1.05731201171875,-0.417694091796875,-0.1469879150390625
1782891401488446700,10.06444677734375,-1.0123443603515625,-0.4057464599609375,-0.1617279052734375
1782891401498468900,10.07446875,-0.9832305908203125,-0.3878936767578125,-0.168426513671875
1782891401508490800,10.08449072265625,-0.981292724609375,-0.3571319580078125,-0.1718902587890625
1782891401518512600,10.0945126953125,-1.0212249755859375,-0.306671142578125,-0.170684814453125
1782891401528534800,10.10453466796875,-1.0911102294921875,-0.235260009765625,-0.158050537109375
1782891401538557000,10.114556884765625,-1.155731201171875,-0.16278076171875,-0.136077880859375
1782891401548577800,10.124577880859375,-1.2192535400390625,-0.109222412109375,-0.1080322265625
1782891401558599700,10.134599609375,-1.2742156982421875,-0.0732574462890625,-0.07427978515625
1782891401568621800,10.144621826171875,-1.3031005859375,-0.056640625,-0.0485076904296875
1782891401578643700,10.154643798828126,-1.2897796630859375,-0.0499420166015625,-0.03009033203125
1782891401588665600,10.16466552734375,-1.2285614013671875,-0.0443267822265625,-0.034027099609375
1782891401598688000,10.17468798828125,-1.125335693359375,-0.048797607421875,-0.05548095703125
1782891401608710000,10.1847099609375,-1.01251220703125,-0.0709991455078125,-0.0789337158203125
1782891401618731800,10.194731689453125,-0.925537109375,-0.101470947265625,-0.0979766845703125
1782891401628754000,10.20475390625,-0.8567352294921875,-0.147247314453125,-0.09918212890625
1782891401638775800,10.21477587890625,-0.8041534423828125,-0.200653076171875,-0.0882110595703125
1782891401648797700,10.224797607421875,-0.7733917236328125,-0.262115478515625,-0.074615478515625
1782891401658819800,10.23481982421875,-0.75848388671875,-0.3046112060546875,-0.0707244873046875
1782891401668841700,10.244841796875,-0.752410888671875,-0.3285369873046875,-0.0772552490234375
1782891401678862800,10.25486279296875,-0.75958251953125,-0.3384857177734375,-0.092620849609375
1782891401688884700,10.264884765625,-0.7855682373046875,-0.338653564453125,-0.109405517578125
1782891401698907000,10.274906982421875,-0.824310302734375,-0.327728271484375,-0.116729736328125
1782891401708928800,10.2849287109375,-0.8620758056640625,-0.3069915771484375,-0.1189422607421875
1782891401718950700,10.29495068359375,-0.8934783935546875,-0.2821502685546875,-0.1097259521484375
1782891401728972800,10.304972900390625,-0.9072723388671875,-0.2607879638671875,-0.101654052734375
1782891401738995000,10.314994873046874,-0.9076385498046875,-0.2414093017578125,-0.0978240966796875
1782891401749016800,10.325016845703125,-0.8994598388671875,-0.228607177734375,-0.0917510986328125
1782891401759039000,10.3350390625,-0.8801116943359375,-0.2155303955078125,-0.0836639404296875
1782891401769060900,10.345060791015625,-0.8637847900390625,-0.209869384765625,-0.06781005859375
1782891401779082800,10.355082763671875,-0.849151611328125,-0.20819091796875,-0.0601959228515625
1782891401789105000,10.36510498046875,-0.8341827392578125,-0.2126312255859375,-0.050201416015625
1782891401799126800,10.375126708984375,-0.8175506591796875,-0.2221221923828125,-0.036834716796875
1782891401809148700,10.385148681640626,-0.7971038818359375,-0.23516845703125,-0.0260467529296875
1782891401819169800,10.395169677734375,-0.7816009521484375,-0.2468109130859375,-0.0178985595703125
1782891401829192000,10.40519189453125,-0.7679595947265625,-0.2531890869140625,-0.008697509765625
1782891401839213800,10.4152138671875,-0.759613037109375,-0.2592010498046875,-0.002105712890625
1782891401849235700,10.425235595703125,-0.7700347900390625,-0.2682342529296875,0.0031585693359375
1782891401859257900,10.4352578125,-0.79254150390625,-0.277496337890625,0.00994873046875
1782891401869279700,10.44527978515625,-0.8234100341796875,-0.2810211181640625,0.01702880859375
1782891401879302000,10.455302001953125,-0.8636322021484375,-0.279937744140625,0.0258636474609375
1782891401889323800,10.46532373046875,-0.90625,-0.2787933349609375,0.034393310546875
1782891401899346000,10.475345947265625,-0.938751220703125,-0.27276611328125,0.037445068359375
1782891401909367800,10.485367919921876,-0.95208740234375,-0.271759033203125,0.04010009765625
1782891401919389700,10.4953896484375,-0.9553985595703125,-0.2767333984375,0.04669189453125
1782891401929411800,10.505411865234375,-0.9622039794921875,-0.281494140625,0.0504913330078125
1782891401939433700,10.515433837890624,-0.970001220703125,-0.281646728515625,0.0523834228515625
1782891401949454800,10.525454833984375,-0.984130859375,-0.2795867919921875,0.0523223876953125
1782891401959476700,10.535476806640625,-0.9997100830078125,-0.273162841796875,0.052825927734375
1782891401969499000,10.545498779296874,-1.0239715576171875,-0.26397705078125,0.05548095703125
1782891401979520800,10.555520751953125,-1.0643157958984375,-0.2523651123046875,0.0528717041015625
1782891401989542700,10.565542724609376,-1.127288818359375,-0.241363525390625,0.0477752685546875
1782891401999564800,10.575564697265625,-1.2113494873046875,-0.2318267822265625,0.0386810302734375
1782891402009586700,10.585586669921875,-1.3097381591796875,-0.214996337890625,0.03082275390625
1782891402019608800,10.59560888671875,-1.4058837890625,-0.2140350341796875,0.0486297607421875
1782891402029631000,10.605630859375,-1.48614501953125,-0.255706787109375,0.0932464599609375
1782891402039652900,10.61565283203125,-1.5012969970703125,-0.2935943603515625,0.116424560546875
1782891402049674800,10.6256748046875,-1.425018310546875,-0.290313720703125,0.083099365234375
1782891402059697000,10.63569677734375,-1.2961273193359375,-0.272308349609375,0.0251922607421875
1782891402069718800,10.64571875,-1.154296875,-0.2704315185546875,-0.0193023681640625
1782891402079740000,10.655739990234375,-1.04327392578125,-0.299713134765625,-0.03363037109375
1782891402089761800,10.66576171875,-0.995513916015625,-0.3187255859375,-0.0626220703125
1782891402099784000,10.675783935546875,-1.0248260498046875,-0.3113861083984375,-0.119110107421875
1782891402109805800,10.685805908203125,-1.0956878662109375,-0.2835235595703125,-0.1786956787109375
1782891402119827700,10.69582763671875,-1.173004150390625,-0.245147705078125,-0.2016448974609375
1782891402129849900,10.705849853515625,-1.23138427734375,-0.2083740234375,-0.192962646484375
1782891402139871700,10.715871826171876,-1.2679443359375,-0.1748504638671875,-0.1730194091796875
1782891402149894000,10.725893798828125,-1.2696533203125,-0.1603851318359375,-0.1431121826171875
1782891402159916000,10.735916015625,-1.2504119873046875,-0.163787841796875,-0.11224365234375
1782891402169938000,10.74593798828125,-1.18609619140625,-0.175537109375,-0.0929718017578125
1782891402179959800,10.755959716796875,-1.0793304443359375,-0.1884613037109375,-0.0713348388671875
1782891402189982000,10.76598193359375,-0.9400787353515625,-0.2129364013671875,-0.0461578369140625
1782891402200003800,10.77600390625,-0.8030853271484375,-0.243408203125,-0.02362060546875
1782891402210025000,10.78602490234375,-0.697052001953125,-0.2721710205078125,-0.0164947509765625
1782891402220046800,10.796046875,-0.6313323974609375,-0.31005859375,-0.025848388671875
1782891402230069000,10.806069091796875,-0.59771728515625,-0.3514404296875,-0.0483245849609375
1782891402240091000,10.8160908203125,-0.602996826171875,-0.3926239013671875,-0.0845184326171875
1782891402250112800,10.82611279296875,-0.63555908203125,-0.4210968017578125,-0.1303558349609375
1782891402260135000,10.836135009765625,-0.6887359619140625,-0.4319610595703125,-0.160797119140625
1782891402270156800,10.84615673828125,-0.753692626953125,-0.4364013671875,-0.178558349609375
1782891402280178700,10.8561787109375,-0.8243255615234375,-0.4247589111328125,-0.20037841796875
1782891402290200800,10.866200927734376,-0.8569183349609375,-0.399932861328125,-0.2321624755859375
1782891402300223000,10.876222900390625,-0.8692169189453125,-0.36993408203125,-0.2526092529296875
1782891402310244900,10.886244873046875,-0.9417266845703125,-0.430908203125,-0.147003173828125
1782891402320266800,10.896266845703124,-0.9859466552734375,-0.4238433837890625,-0.122528076171875
1782891402330289000,10.906288818359375,-0.89544677734375,-0.2462310791015625,-0.304931640625
1782891402340309800,10.916309814453125,-0.80615234375,-0.19329833984375,-0.384063720703125
1782891402350332000,10.926331787109374,-0.787322998046875,-0.230743408203125,-0.3059234619140625
1782891402360354000,10.93635400390625,-0.8202362060546875,-0.251739501953125,-0.231536865234375
1782891402370376000,10.9463759765625,-0.8751068115234375,-0.20501708984375,-0.2588348388671875
1782891402380397800,10.956397705078125,-0.9280548095703125,-0.1726226806640625,-0.3015594482421875
1782891402390419700,10.966419677734375,-0.9943084716796875,-0.217529296875,-0.26922607421875
1782891402400441900,10.97644189453125,-1.03448486328125,-0.253082275390625,-0.236907958984375
1782891402410463700,10.986463623046875,-1.022491455078125,-0.2366180419921875,-0.2405853271484375
1782891402420485600,10.996485595703126,-1.0270538330078125,-0.2270660400390625,-0.2525482177734375
1782891402430507800,11.0065078125,-1.0742950439453125,-0.242706298828125,-0.2836456298828125
1782891402440530000,11.016530029296876,-1.12841796875,-0.2384033203125,-0.319610595703125
1782891402450552300,11.02655224609375,-1.13916015625,-0.228302001953125,-0.306732177734375
1782891402460574200,11.03657421875,-1.100738525390625,-0.2083740234375,-0.270843505859375
1782891402470595000,11.046594970703126,-1.0410308837890625,-0.2050628662109375,-0.19732666015625
1782891402480617200,11.0566171875,-0.9207763671875,-0.2747802734375,-0.0259552001953125
1782891402490639000,11.06663916015625,-0.8873138427734375,-0.208282470703125,0.0055694580078125
1782891402500661200,11.0766611328125,-0.88726806640625,-0.1251373291015625,-0.12548828125
1782891402510683400,11.086683349609375,-0.9009552001953125,-0.203094482421875,-0.07073974609375
1782891402520705300,11.096705322265626,-0.992828369140625,-0.349884033203125,0.1191253662109375
1782891402530727200,11.10672705078125,-1.0000457763671875,-0.3444061279296875,0.0551910400390625
1782891402540749300,11.116749267578125,-0.9687652587890625,-0.23529052734375,-0.08746337890625
1782891402550771200,11.126771240234374,-0.9760894775390625,-0.1906890869140625,-0.0762786865234375
1782891402560793000,11.13679296875,-0.9991302490234375,-0.2182159423828125,0.0091400146484375
1782891402570815000,11.14681494140625,-1.000091552734375,-0.2311248779296875,0.0513916015625
1782891402580837400,11.15683740234375,-0.9836578369140625,-0.251220703125,0.0904998779296875
1782891402590859300,11.166859375,-0.971954345703125,-0.3014984130859375,0.1279754638671875
1782891402600880000,11.176880126953124,-0.9650115966796875,-0.355865478515625,0.1427001953125
1782891402610902300,11.18690234375,-0.9671478271484375,-0.4090423583984375,0.162384033203125
1782891402620924200,11.196924072265626,-0.95843505859375,-0.448394775390625,0.141448974609375
1782891402630946000,11.206946044921875,-0.9309234619140625,-0.4740753173828125,0.1204681396484375
1782891402640968200,11.21696826171875,-0.8812255859375,-0.445068359375,0.071685791015625
1782891402650990300,11.226990234375,-0.849853515625,-0.39825439453125,0.0404815673828125
1782891402661012200,11.23701220703125,-0.856689453125,-0.3587799072265625,0.033966064453125
1782891402671034000,11.2470341796875,-0.8872528076171875,-0.29962158203125,0.01336669921875
1782891402681056300,11.25705615234375,-0.9380950927734375,-0.227081298828125,-0.0139312744140625
1782891402691078100,11.267078125,-1.0005340576171875,-0.1680145263671875,-0.0279998779296875
1782891402701100000,11.27710009765625,-1.050201416015625,-0.1339111328125,-0.0227813720703125
1782891402711122200,11.2871220703125,-1.095123291015625,-0.1220855712890625,-0.0111083984375
1782891402721144300,11.297144287109376,-1.116790771484375,-0.1202850341796875,-0.0011444091796875
1782891402731165200,11.307165283203124,-1.09979248046875,-0.12371826171875,0.0069427490234375
1782891402741187000,11.31718701171875,-1.0532989501953125,-0.131011962890625,0.004913330078125
1782891402751209200,11.327209228515626,-1.0122222900390625,-0.155670166015625,0.003814697265625
1782891402761231000,11.337231201171875,-0.9868621826171875,-0.19012451171875,0.00244140625
1782891402771253000,11.3472529296875,-0.956390380859375,-0.211761474609375,-0.0046539306640625
1782891402781275400,11.357275390625,-0.9196319580078125,-0.2316436767578125,0.0029296875
1782891402791297300,11.36729736328125,-0.892852783203125,-0.2563323974609375,0.0238800048828125
1782891402801319200,11.377319091796876,-0.8724517822265625,-0.264801025390625,0.0377044677734375
1782891402811341300,11.38734130859375,-0.85546875,-0.2501220703125,0.0426483154296875
1782891402821363200,11.39736328125,-0.84527587890625,-0.234100341796875,0.04266357421875
1782891402831385000,11.407385009765624,-0.8505859375,-0.2287750244140625,0.048919677734375
1782891402841407200,11.4174072265625,-0.882598876953125,-0.218994140625,0.038787841796875
1782891402851429000,11.42742919921875,-0.93035888671875,-0.2055511474609375,0.031280517578125
1782891402861450200,11.4374501953125,-0.962493896484375,-0.2081756591796875,0.045745849609375
1782891402871472000,11.44747216796875,-0.964263916015625,-0.20379638671875,0.048919677734375
1782891402881494300,11.457494384765624,-0.9448394775390625,-0.211212158203125,0.0513153076171875
1782891402891516200,11.46751611328125,-0.91455078125,-0.2246856689453125,0.049591064453125
1782891402901538000,11.4775380859375,-0.876373291015625,-0.2433929443359375,0.0518646240234375
1782891402911560200,11.487560302734375,-0.829681396484375,-0.252197265625,0.0716400146484375
1782891402921582300,11.497582275390625,-0.785675048828125,-0.26470947265625,0.10394287109375
1782891402931604200,11.507604248046874,-0.7558746337890625,-0.28802490234375,0.140380859375
1782891402941626400,11.51762646484375,-0.7439727783203125,-0.310760498046875,0.166717529296875
1782891402951648300,11.527648193359376,-0.747833251953125,-0.3293304443359375,0.1739654541015625
1782891402961670100,11.537670166015625,-0.771209716796875,-0.3443603515625,0.1575164794921875
