time,seconds_elapsed,z,y,x
1782891391486562300,0.062562255859375,0.9007473587989807,1.020190954208374,-0.033246636390686035
1782891391496584400,0.07258447265625,0.9561065435409546,1.2590006589889526,-0.12453633546829224
1782891391506606300,0.0826064453125,0.9857589602470398,1.4228515625,-0.24365153908729553
1782891391516628200,0.092628173828125,0.9884727001190186,1.4810168743133545,-0.4054945111274719
1782891391526650400,0.102650390625,0.9447004795074463,1.4892306327819824,-0.6010560393333435
1782891391536672300,0.11267236328125,0.8819665312767029,1.4558836221694946,-0.7960710525512695
1782891391546694400,0.1226943359375,0.7819634675979614,1.4945210218429565,-0.9623300433158875
1782891391556716500,0.132716552734375,0.65354984998703,1.57048761844635,-1.1008541584014893
1782891391566738400,0.142738525390625,0.5302811861038208,1.6410167217254639,-1.229546308517456
1782891391576760300,0.15276025390625,0.44028523564338684,1.7619355916976929,-1.3412967920303345
1782891391586781200,0.16278125,0.3921744227409363,1.9282276630401611,-1.42044997215271
1782891391596803300,0.17280322265625,0.4042265713214874,2.1129555702209473,-1.4938863515853882
1782891391606825500,0.182825439453125,0.4708588719367981,2.281791925430298,-1.5571377277374268
1782891391616847400,0.192847412109375,0.6018863916397095,2.373770236968994,-1.6053752899169922
1782891391626869500,0.202869384765625,0.7655765414237976,2.424872636795044,-1.6629648208618164
1782891391636891400,0.212891357421875,0.9391626715660095,2.4030816555023193,-1.7085515260696411
1782891391646913300,0.222913330078125,1.081764578819275,2.2963335514068604,-1.739482045173645
1782891391656935400,0.232935302734375,1.1776961088180542,2.1272175312042236,-1.7499825954437256
1782891391666957300,0.242957275390625,1.2279231548309326,1.8862924575805664,-1.749508023262024
1782891391676979200,0.252979248046875,1.2559430599212646,1.560243010520935,-1.7207791805267334
1782891391687001300,0.26300146484375,1.287230372428894,1.2902538776397705,-1.632856011390686
1782891391697023500,0.2730234375,1.3682725429534912,1.134205937385559,-1.4623523950576782
1782891391707045400,0.28304541015625,1.525282382965088,1.0076128244400024,-1.2183655500411987
1782891391717067500,0.293067626953125,1.7448517084121704,0.8290660381317139,-0.9366233348846436
1782891391727089400,0.30308935546875,1.9701285362243652,0.6159998178482056,-0.6448335647583008
1782891391737110300,0.3131103515625,2.163198471069336,0.4203900992870331,-0.35806599259376526
1782891391747132400,0.32313232421875,2.3085339069366455,0.27833256125450134,-0.05987505242228508
1782891391757154600,0.333154541015625,2.389643669128418,0.1639156937599182,0.2161988765001297
1782891391767176400,0.343176513671875,2.4122748374938965,0.0533260703086853,0.45561811327934265
1782891391777198300,0.3531982421875,2.374983549118042,-0.08812905848026276,0.6301433444023132
1782891391787220500,0.363220458984375,2.28898024559021,-0.2703779637813568,0.7255955338478088
1782891391797242400,0.373242431640625,2.1695587635040283,-0.41216224431991577,0.7825149893760681
1782891391807264300,0.38326416015625,2.0290582180023193,-0.4815903306007385,0.8473688364028931
1782891391817286100,0.3932861328125,1.8830785751342773,-0.48625698685646057,0.9031631350517273
1782891391827308500,0.40330859375,1.7479835748672485,-0.47878575325012207,0.9345173239707947
1782891391837330400,0.413330322265625,1.6227353811264038,-0.46737730503082275,0.9276626110076904
1782891391847352300,0.423352294921875,1.5178231000900269,-0.43833792209625244,0.8916444182395935
1782891391857374500,0.43337451171875,1.4247221946716309,-0.32977044582366943,0.8454164862632751
1782891391867396400,0.443396240234375,1.3551857471466064,-0.15779761970043182,0.7875640988349915
1782891391877418200,0.453418212890625,1.3129898309707642,0.05121924355626106,0.7364093065261841
1782891391887439400,0.463439453125,1.297542691230774,0.25034406781196594,0.6886622905731201
1782891391897461500,0.47346142578125,1.288581132888794,0.3926876187324524,0.6465505361557007
1782891391907483400,0.4834833984375,1.2790427207946777,0.45974788069725037,0.6167766451835632
1782891391917505300,0.49350537109375,1.2512487173080444,0.4612269997596741,0.5857183337211609
1782891391927527400,0.50352734375,1.2141807079315186,0.3962163031101227,0.5633406043052673
1782891391937549300,0.51354931640625,1.1569511890411377,0.3461161255836487,0.559184730052948
1782891391947571200,0.5235712890625,1.0837390422821045,0.28973114490509033,0.5643264651298523
1782891391957593300,0.53359326171875,1.0001511573791504,0.22883690893650055,0.560901403427124
1782891391967615500,0.543615478515625,0.9172789454460144,0.16401717066764832,0.5580933690071106
1782891391977637400,0.553637451171875,0.8402262330055237,0.11336703598499298,0.5515515804290771
1782891391987659500,0.563659423828125,0.7594456672668457,0.08144159615039825,0.5333081483840942
1782891391997681400,0.573681396484375,0.6595273017883301,0.08415216207504272,0.4821333587169647
1782891392007703300,0.583703369140625,0.541547954082489,0.15426307916641235,0.3874097764492035
1782891392017725400,0.593725341796875,0.4042380154132843,0.260468065738678,0.2005530744791031
1782891392027747300,0.603747314453125,0.25508981943130493,0.34771695733070374,-0.05657140165567398
1782891392037769200,0.613769287109375,0.0971158966422081,0.48075249791145325,-0.36991333961486816
1782891392047790300,0.623790283203125,-0.0331030935049057,0.4960781931877136,-0.68426114320755
1782891392057812500,0.6338125,-0.12367453426122665,0.36655402183532715,-0.9421353340148926
1782891392067834400,0.64383447265625,-0.205437570810318,0.20194776356220245,-1.1362611055374146
1782891392077856300,0.653856201171875,-0.30549946427345276,0.06509830802679062,-1.2974388599395752
1782891392087878400,0.66387841796875,-0.41671252250671387,-0.1238686814904213,-1.4032750129699707
1782891392097900300,0.673900390625,-0.5255340933799744,-0.3167409300804138,-1.4414364099502563
1782891392107922400,0.68392236328125,-0.6140748858451843,-0.3803241550922394,-1.405349850654602
1782891392117944600,0.693944580078125,-0.6908740401268005,-0.307422012090683,-1.3164771795272827
1782891392127966500,0.703966552734375,-0.7432602643966675,-0.3005848526954651,-1.1779131889343262
1782891392137988400,0.71398828125,-0.8020397424697876,-0.2347472608089447,-1.0191597938537598
1782891392148010200,0.72401025390625,-0.8898041844367981,-0.22747576236724854,-0.8727623820304871
1782891392158032400,0.734032470703125,-0.9552324414253235,-0.29978805780410767,-0.7418400049209595
1782891392168054300,0.74405419921875,-0.9750487804412842,-0.4528060853481293,-0.6185716390609741
1782891392178076200,0.754076171875,-0.9802379608154297,-0.6401045918464661,-0.5077236890792847
1782891392188098300,0.764098388671875,-0.9609683752059937,-0.7697020173072815,-0.378177672624588
1782891392198119400,0.774119384765625,-0.9116450548171997,-0.8438891768455505,-0.23749324679374695
1782891392208141300,0.784141357421875,-0.8316503167152405,-0.8715426325798035,-0.0852549746632576
1782891392218163200,0.7941630859375,-0.7382023930549622,-0.8248584866523743,0.07210642099380493
1782891392228185300,0.804185302734375,-0.6444532871246338,-0.7022220492362976,0.23328252136707306
1782891392238207200,0.814207275390625,-0.5615317821502686,-0.5160609483718872,0.40345078706741333
1782891392248229400,0.8242294921875,-0.492502361536026,-0.27848702669143677,0.5611738562583923
1782891392258251500,0.83425146484375,-0.42872846126556396,0.010433199815452099,0.6976890563964844
1782891392268273400,0.8442734375,-0.34174853563308716,0.32714617252349854,0.7881084680557251
1782891392278295300,0.85429541015625,-0.2451586276292801,0.6050225496292114,0.8098105788230896
1782891392288317400,0.8643173828125,-0.149736225605011,0.8247338533401489,0.7425447106361389
1782891392298339300,0.87433935546875,-0.05723346024751663,0.9386132955551147,0.5947262048721313
1782891392308361200,0.884361328125,-0.01128194946795702,0.8757339119911194,0.3631422519683838
1782891392318383400,0.89438330078125,-0.007358047645539045,0.6197457909584045,0.10559327155351639
1782891392328405500,0.904405517578125,-0.07818854600191116,0.24666304886341095,-0.13153086602687836
1782891392338427400,0.914427490234375,-0.22582966089248657,-0.14643657207489014,-0.29697948694229126
1782891392348449500,0.924449462890625,-0.4172784686088562,-0.5243375301361084,-0.38173484802246094
1782891392358470400,0.934470458984375,-0.600581169128418,-0.8162854909896851,-0.386360764503479
1782891392368492300,0.9444921875,-0.7451037168502808,-1.0012476444244385,-0.3093131184577942
1782891392378514200,0.95451416015625,-0.8633307814598083,-1.0757874250411987,-0.1679527908563614
1782891392388536600,0.96453662109375,-0.9489918947219849,-1.0024611949920654,0.018098309636116028
1782891392398558500,0.974558349609375,-0.9765444397926331,-0.7413846254348755,0.2530306577682495
1782891392408580400,0.984580322265625,-0.9273374676704407,-0.33210816979408264,0.49239876866340637
1782891392418602500,0.9946025390625,-0.8051081895828247,0.11527332663536072,0.674839973449707
1782891392428624400,1.004624267578125,-0.625539243221283,0.4844433665275574,0.7469415664672852
1782891392438645500,1.0146455078125,-0.44839268922805786,0.741730809211731,0.680830717086792
1782891392448667600,1.024667724609375,-0.29887112975120544,0.8566520810127258,0.49673518538475037
1782891392458689800,1.034689697265625,-0.19641798734664917,0.8229921460151672,0.23729191720485687
1782891392468711700,1.044711669921875,-0.15293042361736298,0.6577427387237549,-0.05547204613685608
1782891392478733600,1.054733642578125,-0.17006786167621613,0.40343135595321655,-0.33444589376449585
1782891392488755500,1.06475537109375,-0.23378905653953552,0.10419830679893494,-0.5415180921554565
1782891392498777600,1.074777587890625,-0.3177638649940491,-0.19256971776485443,-0.6448314785957336
1782891392508798700,1.084798828125,-0.39355048537254333,-0.42309319972991943,-0.6329241991043091
1782891392518820600,1.094820556640625,-0.4609907865524292,-0.5722256898880005,-0.5215712785720825
1782891392528842800,1.1048427734375,-0.5185102820396423,-0.6500509977340698,-0.34674757719039917
1782891392538864600,1.11486474609375,-0.540427029132843,-0.6749805808067322,-0.15433524549007416
1782891392548886500,1.124886474609375,-0.5376043319702148,-0.6186445951461792,0.012863600626587868
1782891392558908400,1.134908447265625,-0.5301016569137573,-0.5085402131080627,0.10563188791275024
1782891392568930600,1.1449306640625,-0.5236184597015381,-0.35685214400291443,0.11740678548812866
1782891392578952400,1.154952392578125,-0.5029693841934204,-0.2130022794008255,0.062073756009340286
1782891392588974600,1.164974609375,-0.4594070017337799,-0.10095804184675217,-0.05137823522090912
1782891392598996700,1.174996826171875,-0.4026835262775421,-0.039199866354465485,-0.19458013772964478
1782891392609018600,1.1850185546875,-0.3401698172092438,0.020389162003993988,-0.3232337236404419
1782891392619040500,1.19504052734375,-0.26812970638275146,0.092509426176548,-0.40581247210502625
1782891392629062700,1.205062744140625,-0.20720592141151428,0.19844384491443634,-0.45158398151397705
1782891392639084500,1.21508447265625,-0.15099111199378967,0.34850606322288513,-0.4833008944988251
1782891392649106400,1.2251064453125,-0.10684335976839066,0.5000095367431641,-0.531988799571991
1782891392659127600,1.23512744140625,-0.09514382481575012,0.5683164596557617,-0.625316858291626
1782891392669149700,1.245149658203125,-0.13457831740379333,0.5403380990028381,-0.721031665802002
1782891392679171600,1.255171630859375,-0.23551318049430847,0.4479578137397766,-0.7796739339828491
1782891392689193500,1.265193359375,-0.38601988554000854,0.29076817631721497,-0.7792425155639648
1782891392699215600,1.275215576171875,-0.5637847781181335,0.10177642852067947,-0.7183083295822144
1782891392709237500,1.285237548828125,-0.7206606864929199,-0.12061402946710587,-0.6200225353240967
1782891392719259400,1.29525927734375,-0.8432803750038147,-0.2881239354610443,-0.5168045163154602
1782891392729281500,1.305281494140625,-0.9421212077140808,-0.35154497623443604,-0.4076881408691406
1782891392739303700,1.3153037109375,-0.9715301990509033,-0.425661563873291,-0.31777769327163696
1782891392749325600,1.32532568359375,-0.9531083106994629,-0.3934735357761383,-0.23401542007923126
1782891392759347700,1.33534765625,-0.9231264591217041,-0.260983407497406,-0.17733536660671234
1782891392769369600,1.34536962890625,-0.902954638004303,-0.12694436311721802,-0.17245300114154816
1782891392779391500,1.3553916015625,-0.8911666870117188,-0.07382149249315262,-0.22717297077178955
1782891392789413600,1.36541357421875,-0.890996515750885,-0.12613342702388763,-0.32777705788612366
1782891392799435500,1.375435546875,-0.9169055819511414,-0.20722748339176178,-0.42056161165237427
1782891392809456600,1.38545654296875,-0.9556324481964111,-0.25989601016044617,-0.47379791736602783
1782891392819478500,1.395478515625,-0.9887944459915161,-0.2953221797943115,-0.4962843358516693
1782891392829500700,1.405500732421875,-1.0039653778076172,-0.35021498799324036,-0.48578161001205444
1782891392839522600,1.4155224609375,-1.0126856565475464,-0.4133271276950836,-0.45210862159729004
1782891392849544400,1.42554443359375,-1.0171648263931274,-0.48044997453689575,-0.41358065605163574
1782891392859566600,1.435566650390625,-1.0149143934249878,-0.531919538974762,-0.3658256530761719
1782891392869588700,1.445588623046875,-1.0052220821380615,-0.5514330863952637,-0.305929571390152
1782891392879610600,1.455610595703125,-0.9890122413635254,-0.5287263989448547,-0.22708775103092194
1782891392889632500,1.465632568359375,-0.9615069031715393,-0.4635809659957886,-0.1215493306517601
1782891392899654700,1.475654541015625,-0.9318946599960327,-0.38551998138427734,-0.016447415575385094
1782891392909676500,1.485676513671875,-0.9096071720123291,-0.30447307229042053,0.07289551198482513
1782891392919698400,1.495698486328125,-0.8947608470916748,-0.22130948305130005,0.1358230859041214
1782891392929720600,1.505720458984375,-0.8778796195983887,-0.12093228101730347,0.17822620272636414
1782891392939742500,1.515742431640625,-0.8426856994628906,-0.006758836563676596,0.19500890374183655
1782891392949764600,1.5257646484375,-0.8051843643188477,0.06412865221500397,0.17905044555664062
1782891392959785500,1.535785400390625,-0.7914368510246277,0.028025776147842407,0.11423336714506149
1782891392969807600,1.5458076171875,-0.8272191286087036,-0.07557625323534012,0.0205119326710701
1782891392979829500,1.55582958984375,-0.8823212385177612,-0.1655237227678299,-0.05152257904410362
1782891392989851400,1.565851318359375,-0.9261789917945862,-0.18308433890342712,-0.10139027237892151
1782891392999873500,1.57587353515625,-0.9431135058403015,-0.15547028183937073,-0.14683738350868225
1782891393009895700,1.585895751953125,-0.9347562193870544,-0.11708693951368332,-0.21597623825073242
1782891393019917600,1.59591748046875,-0.8860390186309814,-0.1300908923149109,-0.32481324672698975
1782891393029939700,1.605939697265625,-0.8224145174026489,-0.18535147607326508,-0.47416144609451294
1782891393039961600,1.615961669921875,-0.7776017785072327,-0.20568498969078064,-0.6379205584526062
1782891393049983500,1.6259833984375,-0.7062974572181702,-0.28211769461631775,-0.7988221049308777
1782891393060005600,1.636005615234375,-0.6107933521270752,-0.36283624172210693,-0.9385464191436768
1782891393070027500,1.646027587890625,-0.5060189962387085,-0.40642526745796204,-1.032286524772644
1782891393080049400,1.65604931640625,-0.4163671135902405,-0.41912856698036194,-1.0739409923553467
1782891393090071600,1.666071533203125,-0.3460868299007416,-0.41034385561943054,-1.0504745244979858
1782891393100093700,1.67609375,-0.2892613708972931,-0.3704736530780792,-0.9649119973182678
1782891393110114600,1.686114501953125,-0.24795281887054443,-0.2965451180934906,-0.8307592272758484
1782891393120136400,1.696136474609375,-0.1971103996038437,-0.2182614952325821,-0.6695535778999329
1782891393130158600,1.70615869140625,-0.12762773036956787,-0.12081989645957947,-0.4945594072341919
1782891393140180500,1.716180419921875,-0.07651901245117188,0.04402924329042435,-0.28864750266075134
1782891393150202600,1.72620263671875,-0.05848807841539383,0.19457080960273743,-0.14074593782424927
1782891393160224800,1.736224853515625,-0.016463661566376686,0.24636530876159668,-0.06176057085394859
1782891393170246700,1.74624658203125,0.03934953734278679,0.2780883312225342,-0.032760608941316605
1782891393180268500,1.7562685546875,0.1044478490948677,0.33649227023124695,-0.03193902596831322
1782891393190290700,1.766290771484375,0.16603131592273712,0.39242103695869446,-0.04500316083431244
1782891393200312600,1.7763125,0.2308310866355896,0.4127825200557709,-0.06447406113147736
1782891393210334500,1.78633447265625,0.2851007282733917,0.385689377784729,-0.0703071877360344
1782891393220356400,1.7963564453125,0.3185420334339142,0.2934281527996063,-0.041973814368247986
1782891393230378800,1.806378662109375,0.35532188415527344,0.16872723400592804,-0.009723734110593796
1782891393240400600,1.816400634765625,0.3940945863723755,0.05109221115708351,0.0963936448097229
1782891393250422500,1.826422607421875,0.4574336111545563,-0.08494684845209122,0.24597541987895966
1782891393260443600,1.836443603515625,0.49072179198265076,-0.1335010677576065,0.4219091534614563
1782891393270465500,1.846465576171875,0.4873313009738922,-0.11526933312416077,0.6017130017280579
1782891393280487400,1.8564873046875,0.47806671261787415,-0.12918488681316376,0.7317298650741577
1782891393290509600,1.866509521484375,0.4849347472190857,-0.21495863795280457,0.7936643362045288
1782891393300531700,1.87653173828125,0.49549415707588196,-0.31825998425483704,0.7839075922966003
1782891393310553600,1.8865537109375,0.5029408931732178,-0.40384441614151,0.7236394286155701
1782891393320575500,1.896575439453125,0.49490880966186523,-0.48530811071395874,0.6283550262451172
1782891393330597600,1.90659765625,0.4755236506462097,-0.5704647898674011,0.5263397097587585
1782891393340619500,1.91661962890625,0.43467527627944946,-0.6633537411689758,0.43807828426361084
1782891393350641400,1.926641357421875,0.37798377871513367,-0.7538836598396301,0.3824238181114197
1782891393360663600,1.93666357421875,0.3088201582431793,-0.8245397210121155,0.355807363986969
1782891393370685700,1.946685791015625,0.23139621317386627,-0.8727588653564453,0.35618048906326294
1782891393380707600,1.95670751953125,0.14678731560707092,-0.9048505425453186,0.37869805097579956
1782891393390729700,1.966729736328125,0.03344690799713135,-0.9415062665939331,0.4072825610637665
1782891393400750600,1.97675048828125,-0.09415020048618317,-0.9886423349380493,0.43369683623313904
1782891393410772500,1.9867724609375,-0.23433101177215576,-1.0196359157562256,0.4503314793109894
1782891393420794400,1.99679443359375,-0.3689362108707428,-1.0197906494140625,0.4568072259426117
1782891393430816800,2.006816650390625,-0.4910304546356201,-0.9610698223114014,0.4620454013347626
1782891393440839000,2.0168388671875,-0.5841105580329895,-0.838634192943573,0.4840433597564697
1782891393450860800,2.02686083984375,-0.6452620625495911,-0.6832091808319092,0.5109687447547913
1782891393460882700,2.036882568359375,-0.6665721535682678,-0.5086347460746765,0.5638859868049622
1782891393470904800,2.04690478515625,-0.6486828923225403,-0.2962798774242401,0.6263896226882935
1782891393480926700,2.0569267578125,-0.5731423497200012,-0.06111981347203255,0.706001341342926
1782891393490948600,2.066948486328125,-0.4473293125629425,0.22752024233341217,0.7953000664710999
1782891393500970800,2.076970703125,-0.26339036226272583,0.6043969392776489,0.8822804689407349
1782891393510992600,2.08699267578125,-0.049861565232276917,1.051132082939148,0.9352076053619385
1782891393521014800,2.097014892578125,0.14879639446735382,1.4922242164611816,0.9188238382339478
1782891393531037000,2.107036865234375,0.3115781247615814,1.8488692045211792,0.807098388671875
1782891393541058800,2.117058837890625,0.44529810547828674,2.0769474506378174,0.5909605026245117
1782891393551079700,2.12707958984375,0.5595109462738037,2.1090123653411865,0.3028205931186676
1782891393561101600,2.1371015625,0.6509093046188354,1.9438016414642334,-0.002460494404658675
1782891393571123700,2.147123779296875,0.6794392466545105,1.6413730382919312,-0.27593252062797546
1782891393581145900,2.157145751953125,0.5950407385826111,1.2517069578170776,-0.4752349555492401
1782891393591167700,2.167167724609375,0.3859676718711853,0.8471901416778564,-0.5947608351707458
1782891393601190000,2.17718994140625,0.06979399174451828,0.4580692946910858,-0.668641984462738
1782891393611211800,2.187211669921875,-0.2706810235977173,0.08385787904262543,-0.681789219379425
1782891393621233700,2.197233642578125,-0.555593729019165,-0.20227906107902527,-0.6030802726745605
1782891393631255600,2.207255615234375,-0.7329277396202087,-0.3659513592720032,-0.44452419877052307
1782891393641277700,2.217277587890625,-0.7850772738456726,-0.4520159363746643,-0.2325642704963684
1782891393651299800,2.2272998046875,-0.7293580770492554,-0.5078959465026855,0.002246909076347947
1782891393661321700,2.23732177734375,-0.58840012550354,-0.5612640976905823,0.23009231686592102
1782891393671343900,2.24734375,-0.39858758449554443,-0.6204220056533813,0.43890464305877686
1782891393681365800,2.25736572265625,-0.19387279450893402,-0.6533631682395935,0.6338642835617065
1782891393691387600,2.2673876953125,-0.005359079223126173,-0.6362528800964355,0.8059604167938232
1782891393701408800,2.27740869140625,0.14797109365463257,-0.5610768795013428,0.951664924621582
1782891393711431000,2.287430908203125,0.24839596450328827,-0.4420280158519745,1.0698647499084473
1782891393721452800,2.297452880859375,0.30780044198036194,-0.3071727156639099,1.151779055595398
1782891393731474700,2.307474609375,0.33544111251831055,-0.18604497611522675,1.1820321083068848
1782891393741496800,2.317496826171875,0.3644900918006897,-0.08522461354732513,1.1587616205215454
1782891393751518700,2.327518798828125,0.39441096782684326,-0.013939251191914082,1.0830421447753906
1782891393761540600,2.33754052734375,0.4262793958187103,0.04689507186412811,0.9589068293571472
1782891393771562800,2.347562744140625,0.4472017288208008,0.08123812824487686,0.8130231499671936
1782891393781584600,2.357584716796875,0.44697457551956177,0.09968531131744385,0.6485345959663391
1782891393791606800,2.367606689453125,0.4110908806324005,0.10325954109430313,0.47408634424209595
1782891393801629000,2.37762890625,0.335931658744812,0.08666644990444183,0.29803621768951416
1782891393811650800,2.38765087890625,0.2184377908706665,0.06180637702345848,0.11942679435014725
1782891393821672700,2.397672607421875,0.07528863102197647,0.025724271312355995,-0.04656963050365448
1782891393831694800,2.40769482421875,-0.08190552145242691,-0.004898618441075087,-0.20026971399784088
1782891393841715700,2.4177158203125,-0.22235450148582458,-0.04922587051987648,-0.3134561777114868
1782891393851737900,2.42773779296875,-0.32330402731895447,-0.09761763364076614,-0.380987286567688
1782891393861759700,2.437759765625,-0.37628015875816345,-0.1482003927230835,-0.40598931908607483
1782891393871782000,2.447781982421875,-0.3968464136123657,-0.2030005156993866,-0.40139269828796387
1782891393881803800,2.4578037109375,-0.3936751186847687,-0.26975104212760925,-0.3689095973968506
1782891393891825700,2.46782568359375,-0.37260499596595764,-0.3344314992427826,-0.31699419021606445
1782891393901847800,2.477847900390625,-0.33977222442626953,-0.4029842019081116,-0.25195446610450745
1782891393911869700,2.48786962890625,-0.3085799515247345,-0.45948901772499084,-0.18585535883903503
1782891393921891600,2.4978916015625,-0.28814470767974854,-0.4799349009990692,-0.1161005049943924
1782891393931913700,2.507913818359375,-0.2856559753417969,-0.45202019810676575,-0.04235810786485672
1782891393941935900,2.517935791015625,-0.2934713065624237,-0.4093318581581116,0.023179886862635612
1782891393951957800,2.527957763671875,-0.3208203613758087,-0.3722076416015625,0.0640367716550827
1782891393961979600,2.537979736328125,-0.3582063615322113,-0.3496951460838318,0.07649450749158859
1782891393972001800,2.548001708984375,-0.4030694365501404,-0.34989169239997864,0.06079064682126045
1782891393982023700,2.558023681640625,-0.4461876153945923,-0.36878496408462524,0.025974342599511147
1782891393992044800,2.568044921875,-0.45784398913383484,-0.3804109990596771,-0.014200507663190365
1782891394002067000,2.57806689453125,-0.44007644057273865,-0.3790264129638672,-0.057965829968452454
1782891394012088800,2.5880888671875,-0.42825013399124146,-0.38740524649620056,-0.12060444802045822
1782891394022110700,2.59811083984375,-0.4412437081336975,-0.42310065031051636,-0.2106533795595169
1782891394032132600,2.608132568359375,-0.48482635617256165,-0.47263839840888977,-0.3149307668209076
1782891394042154800,2.61815478515625,-0.5579453110694885,-0.5050325393676758,-0.40417250990867615
1782891394052176600,2.6281767578125,-0.660204291343689,-0.4640057384967804,-0.45970234274864197
1782891394062198500,2.638198486328125,-0.7796528935432434,-0.3399474620819092,-0.47348207235336304
1782891394072221000,2.648220947265625,-0.8906918168067932,-0.16387441754341125,-0.4284525513648987
1782891394082242800,2.658242919921875,-0.9696076512336731,0.04787831008434296,-0.32116737961769104
1782891394092264700,2.6682646484375,-1.0063194036483765,0.27103015780448914,-0.18929509818553925
1782891394102286800,2.678286865234375,-0.9896767139434814,0.4406426250934601,-0.08503526449203491
1782891394112308700,2.688308837890625,-0.9173793792724609,0.5205995440483093,-0.030120618641376495
1782891394122330600,2.69833056640625,-0.8179558515548706,0.4886053800582886,-0.03315822035074234
1782891394132351700,2.708351806640625,-0.7110741138458252,0.3795049786567688,-0.07045073062181473
1782891394142374000,2.718373779296875,-0.621275007724762,0.24430695176124573,-0.11373987793922424
1782891394152395800,2.728395751953125,-0.5428904294967651,0.12078367918729782,-0.1377144604921341
1782891394162417700,2.738417724609375,-0.4796443581581116,0.023151658475399017,-0.12051336467266083
1782891394172439800,2.748439697265625,-0.4222457706928253,-0.03428580239415169,-0.05453488230705261
1782891394182461700,2.758461669921875,-0.3778226673603058,-0.043292079120874405,0.049012817442417145
1782891394192483600,2.768483642578125,-0.34919288754463196,-0.022175876423716545,0.15638162195682526
1782891394202505700,2.778505615234375,-0.34973615407943726,-0.01563754864037037,0.23542237281799316
1782891394212527900,2.78852783203125,-0.3519790768623352,-0.040884051471948624,0.26312190294265747
1782891394222549800,2.7985498046875,-0.3533218502998352,-0.0966128259897232,0.2252323180437088
1782891394232572000,2.808572021484375,-0.3555602431297302,-0.17051342129707336,0.1511213481426239
1782891394242593800,2.81859375,-0.3584076762199402,-0.26042118668556213,0.05800950527191162
1782891394252615700,2.82861572265625,-0.3676334023475647,-0.34862855076789856,-0.04043637216091156
1782891394262637800,2.838637939453125,-0.38177773356437683,-0.4236511290073395,-0.11765952408313751
1782891394272659000,2.848658935546875,-0.4048074185848236,-0.49067410826683044,-0.15840908885002136
1782891394282680800,2.858680908203125,-0.438889741897583,-0.5290268063545227,-0.14735616743564606
1782891394292702700,2.86870263671875,-0.4829581379890442,-0.5039553046226501,-0.11879190057516098
1782891394302724900,2.878724853515625,-0.5298670530319214,-0.43366488814353943,-0.08475829660892487
1782891394312746800,2.888746826171875,-0.5648492574691772,-0.336260050535202,-0.05668698251247406
1782891394322768600,2.8987685546875,-0.572700560092926,-0.214419886469841,-0.04289074242115021
1782891394332790800,2.908790771484375,-0.5660306215286255,-0.0785539299249649,-0.04770120978355408
1782891394342812700,2.918812744140625,-0.5439621210098267,0.07188830524682999,-0.07125154137611389
1782891394352834800,2.928834716796875,-0.5206903219223022,0.2347230315208435,-0.10696692764759064
1782891394362856700,2.938856689453125,-0.478864848613739,0.3821484446525574,-0.1542060822248459
1782891394372878800,2.94887890625,-0.4206513464450836,0.5002122521400452,-0.19542115926742554
1782891394382900700,2.958900634765625,-0.3356722891330719,0.5889064073562622,-0.2290467619895935
1782891394392922600,2.968922607421875,-0.2296329289674759,0.6496893167495728,-0.25396302342414856
1782891394402944800,2.97894482421875,-0.10021581500768661,0.6554854512214661,-0.2656111717224121
1782891394412966700,2.988966552734375,0.03987551108002663,0.6093360185623169,-0.26533687114715576
1782891394422987800,2.99898779296875,0.18440286815166473,0.5207532048225403,-0.24011166393756866
1782891394433010000,3.009010009765625,0.3203907907009125,0.40757763385772705,-0.19472713768482208
1782891394443032600,3.019032470703125,0.44540169835090637,0.3054454028606415,-0.11151187866926193
1782891394453054700,3.0290546875,0.5668205618858337,0.22559450566768646,-0.005106877535581589
1782891394463076600,3.03907666015625,0.6887251734733582,0.17055948078632355,0.10534799098968506
1782891394473098500,3.049098388671875,0.8166258335113525,0.13581907749176025,0.22030547261238098
1782891394483120600,3.05912060546875,0.9285971522331238,0.14880359172821045,0.3119725286960602
1782891394493142500,3.069142578125,1.0202906131744385,0.1764296293258667,0.3790977895259857
1782891394503164400,3.079164306640625,1.0959573984146118,0.19667257368564606,0.4121958017349243
1782891394513186800,3.089186767578125,1.1470221281051636,0.21116231381893158,0.4057501554489136
1782891394523208700,3.099208740234375,1.1754229068756104,0.21844471991062164,0.36139681935310364
1782891394533230600,3.109230712890625,1.1837726831436157,0.2258262038230896,0.28777799010276794
1782891394543252700,3.119252685546875,1.1653332710266113,0.23560772836208344,0.21012286841869354
1782891394553274600,3.129274658203125,1.1160221099853516,0.22574657201766968,0.13024163246154785
1782891394563295500,3.13929541015625,1.052089810371399,0.20910048484802246,0.05688032507896423
1782891394573317600,3.149317626953125,0.9841248393058777,0.20378854870796204,0.007161240093410015
1782891394583339800,3.15933984375,0.9311939477920532,0.22642062604427338,-0.018882345408201218
1782891394593361700,3.169361572265625,0.8909573554992676,0.29268884658813477,-0.008802013471722603
1782891394603383600,3.179383544921875,0.8732414841651917,0.3996768295764923,0.03749517723917961
1782891394613405700,3.18940576171875,0.8808946013450623,0.5390448570251465,0.10512135922908783
1782891394623427600,3.199427490234375,0.9204092621803284,0.6893339157104492,0.18501593172550201
1782891394633449500,3.209449462890625,0.9862476587295532,0.8171651363372803,0.25480592250823975
1782891394643471600,3.2194716796875,1.0655853748321533,0.8893474340438843,0.30738070607185364
1782891394653493800,3.22949365234375,1.1402686834335327,0.9017029404640198,0.35158148407936096
1782891394663515600,3.239515625,1.2070963382720947,0.8600183129310608,0.3811263144016266
1782891394673537800,3.249537841796875,1.26996910572052,0.7866660952568054,0.40038442611694336
1782891394683559700,3.2595595703125,1.3290939331054688,0.7012803554534912,0.4117622375488281
1782891394693581600,3.26958154296875,1.377048373222351,0.6222829818725586,0.41917330026626587
1782891394703603500,3.279603515625,1.4147793054580688,0.5468034148216248,0.4321570098400116
1782891394713624800,3.289624755859375,1.4377365112304688,0.46343690156936646,0.4426266849040985
1782891394723646700,3.299646728515625,1.4445909261703491,0.3883855640888214,0.45556405186653137
1782891394733668600,3.309668701171875,1.4287755489349365,0.3491303026676178,0.4740400016307831
1782891394743690800,3.319690673828125,1.3749415874481201,0.3377237021923065,0.48957741260528564
1782891394753712600,3.329712646484375,1.3009952306747437,0.3550827205181122,0.4898570477962494
1782891394763734500,3.339734619140625,1.2150968313217163,0.3710166811943054,0.4564080238342285
1782891394773756400,3.34975634765625,1.1177486181259155,0.3547016382217407,0.3930673897266388
1782891394783778600,3.359778564453125,1.0170657634735107,0.3131171762943268,0.3064475357532501
1782891394793800700,3.36980078125,0.9205014109611511,0.26174986362457275,0.2066040337085724
1782891394803822600,3.379822509765625,0.8336074948310852,0.2233601212501526,0.11216168850660324
1782891394813844700,3.3898447265625,0.7700237035751343,0.1964789628982544,0.029143238440155983
1782891394823866600,3.39986669921875,0.7451657652854919,0.16564622521400452,-0.020953752100467682
1782891394833888500,3.409888427734375,0.7353874444961548,0.15648867189884186,-0.043124567717313766
1782891394843910700,3.41991064453125,0.7437418103218079,0.17151503264904022,-0.03605307638645172
1782891394853931800,3.429931884765625,0.770487368106842,0.19522862136363983,-0.020447485148906708
1782891394863953700,3.43995361328125,0.8162602186203003,0.23274776339530945,-0.0011651329696178436
1782891394873975600,3.4499755859375,0.8765363097190857,0.28008517622947693,0.013520868495106697
1782891394883997700,3.459997802734375,0.9518340229988098,0.34106865525245667,0.022603312507271767
1782891394894019600,3.47001953125,1.0263090133666992,0.4105347990989685,0.025718413293361664
1782891394904041500,3.48004150390625,1.0868840217590332,0.4741409420967102,0.006912234704941511
1782891394914063600,3.490063720703125,1.1356587409973145,0.5410094261169434,-0.033434923738241196
1782891394924085500,3.50008544921875,1.1738433837890625,0.6036787033081055,-0.0904257670044899
1782891394934107600,3.510107666015625,1.2026933431625366,0.6628088355064392,-0.15209366381168365
1782891394944129800,3.5201298828125,1.2181119918823242,0.7211605906486511,-0.21977762877941132
1782891394954151700,3.530151611328125,1.2324390411376953,0.7624638080596924,-0.2914842963218689
1782891394964173600,3.540173583984375,1.2337697744369507,0.7848333120346069,-0.35850727558135986
1782891394974195700,3.55019580078125,1.2121297121047974,0.7701651453971863,-0.4236617982387543
1782891394984217600,3.560217529296875,1.1774332523345947,0.731484055519104,-0.4748663902282715
1782891394994239500,3.570239501953125,1.1541972160339355,0.6751129031181335,-0.5112481117248535
1782891395004260600,3.580260498046875,1.1464219093322754,0.6093871593475342,-0.5259713530540466
1782891395014282800,3.59028271484375,1.1551437377929688,0.5501273274421692,-0.5176045298576355
1782891395024304600,3.6003046875,1.1730742454528809,0.50732421875,-0.49592188000679016
1782891395034326500,3.610326416015625,1.1992086172103882,0.47425997257232666,-0.4731680750846863
1782891395044348700,3.6203486328125,1.229989767074585,0.444906622171402,-0.4628041386604309
1782891395054370600,3.63037060546875,1.2633529901504517,0.4188065826892853,-0.45367082953453064
1782891395064392400,3.640392333984375,1.285285472869873,0.389423668384552,-0.45133310556411743
1782891395074414800,3.650414794921875,1.2962052822113037,0.3618519604206085,-0.4512465298175812
1782891395084436700,3.660436767578125,1.2940821647644043,0.34103134274482727,-0.44026899337768555
1782891395094458600,3.670458740234375,1.2918701171875,0.3388313055038452,-0.41382381319999695
1782891395104480500,3.68048046875,1.2970606088638306,0.3538254499435425,-0.3752724230289459
1782891395114502700,3.690502685546875,1.3096421957015991,0.3754761517047882,-0.31925123929977417
1782891395124524500,3.700524658203125,1.33498215675354,0.4068039655685425,-0.2616880536079407
1782891395134546400,3.71054638671875,1.379144549369812,0.4394617974758148,-0.20892605185508728
1782891395144567800,3.72056787109375,1.4293198585510254,0.4749486744403839,-0.16918689012527466
1782891395154589700,3.730589599609375,1.4817750453948975,0.5099713802337646,-0.14010144770145416
1782891395164611600,3.740611572265625,1.5257375240325928,0.5579178333282471,-0.12568016350269318
1782891395174633500,3.750633544921875,1.5614222288131714,0.6152687668800354,-0.1158837229013443
1782891395184655600,3.760655517578125,1.588808298110962,0.6727643013000488,-0.11373855173587799
1782891395194677500,3.770677490234375,1.6030373573303223,0.7122384309768677,-0.11515454947948456
1782891395204699400,3.780699462890625,1.6042672395706177,0.7276642918586731,-0.11156940460205078
1782891395214721800,3.7907216796875,1.6001781225204468,0.7361602783203125,-0.10746387392282486
1782891395224743700,3.80074365234375,1.5847102403640747,0.7201533913612366,-0.10028772056102753
1782891395234765600,3.810765625,1.569881796836853,0.6799689531326294,-0.09176161140203476
1782891395244787700,3.82078759765625,1.546290397644043,0.6284943222999573,-0.09087184816598892
1782891395254809600,3.8308095703125,1.5226337909698486,0.5776808857917786,-0.08295560628175735
1782891395264831500,3.84083154296875,1.4899104833602905,0.5286784768104553,-0.07291868329048157
1782891395274853600,3.850853515625,1.4467761516571045,0.4810619652271271,-0.051306597888469696
1782891395284874800,3.860874755859375,1.4055898189544678,0.449911504983902,-0.017535584047436714
1782891395294896600,3.870896728515625,1.3643171787261963,0.43834778666496277,0.02647927775979042
1782891395304918500,3.88091845703125,1.3151816129684448,0.44325971603393555,0.06692337244749069
1782891395314940700,3.890940673828125,1.265785574913025,0.44367170333862305,0.09030219912528992
1782891395324962600,3.900962646484375,1.210202693939209,0.444793164730072,0.08486402779817581
1782891395334984400,3.910984375,1.1595406532287598,0.4438842236995697,0.05428560823202133
1782891395345006600,3.921006591796875,1.115768313407898,0.4361669421195984,0.011621502228081226
1782891395355028700,3.93102880859375,1.0883023738861084,0.4160754978656769,-0.02749127894639969
1782891395365050600,3.941050537109375,1.0694074630737305,0.4102698266506195,-0.04325399547815323
1782891395375072800,3.95107275390625,1.058010220527649,0.41328397393226624,-0.039862461388111115
1782891395385094700,3.9610947265625,1.0382333993911743,0.40869882702827454,-0.011903264559805393
1782891395395116500,3.971116455078125,1.0197374820709229,0.39858731627464294,0.02628992684185505
1782891395405138700,3.981138671875,0.9966904520988464,0.39034005999565125,0.06353290379047394
1782891395415160600,3.99116064453125,0.9802600741386414,0.3903728127479553,0.08024823665618896
1782891395425181700,4.001181640625,0.9676808714866638,0.37142041325569153,0.07650090008974075
1782891395435203600,4.01120361328125,0.9717624187469482,0.31775158643722534,0.04019642248749733
1782891395445225500,4.0212255859375,0.9818869829177856,0.23166465759277344,-0.006368150934576988
1782891395455247400,4.031247314453125,0.9939606785774231,0.15624073147773743,-0.04701517894864082
1782891395465269500,4.04126953125,1.012883186340332,0.11339260637760162,-0.06739608198404312
1782891395475291400,4.05129150390625,1.0412869453430176,0.10616691410541534,-0.07391709834337234
1782891395485313500,4.0613134765625,1.077562928199768,0.11227408051490784,-0.07757335156202316
1782891395495335400,4.07133544921875,1.1094661951065063,0.10936377197504044,-0.09845972806215286
1782891395505357600,4.081357666015625,1.1270209550857544,0.08681292831897736,-0.13941514492034912
1782891395515379500,4.09137939453125,1.1072936058044434,0.05089540407061577,-0.19824491441249847
1782891395525401300,4.1014013671875,1.0529990196228027,0.008018244989216328,-0.26807352900505066
1782891395535423500,4.111423583984375,0.9666774272918701,-0.05739325284957886,-0.34828606247901917
1782891395545445400,4.1214453125,0.8601879477500916,-0.14691488444805145,-0.4213389754295349
1782891395555467300,4.13146728515625,0.7525706887245178,-0.23861363530158997,-0.46334582567214966
1782891395565489400,4.141489501953125,0.6407453417778015,-0.28991997241973877,-0.4725901782512665
1782891395575510500,4.151510498046875,0.5307352542877197,-0.2886589765548706,-0.4402602016925812
1782891395585532400,4.161532470703125,0.43684256076812744,-0.252993106842041,-0.37917420268058777
1782891395595554300,4.17155419921875,0.3809569478034973,-0.16499561071395874,-0.2966148853302002
1782891395605576400,4.181576416015625,0.3650600016117096,-0.0529596209526062,-0.20247533917427063
1782891395615598300,4.191598388671875,0.37965890765190125,0.06227961927652359,-0.1075056865811348
1782891395625620500,4.201620361328125,0.40789347887039185,0.1817503571510315,-0.008685633540153503
1782891395635642600,4.211642578125,0.4385826885700226,0.30470824241638184,0.07197166234254837
1782891395645664500,4.22166455078125,0.44695645570755005,0.3955606520175934,0.14092889428138733
1782891395655686400,4.231686279296875,0.4201163351535797,0.45340797305107117,0.17809037864208221
1782891395665708500,4.24170849609375,0.36484506726264954,0.47193238139152527,0.19540944695472717
1782891395675730400,4.25173046875,0.28256911039352417,0.47161999344825745,0.20814362168312073
1782891395685752300,4.26175244140625,0.1785215437412262,0.4523107409477234,0.22132359445095062
1782891395695774500,4.2717744140625,0.06859450787305832,0.4176401197910309,0.2324385643005371
1782891395705796600,4.281796630859375,-0.039394810795784,0.37352484464645386,0.245912566781044
1782891395715817500,4.2918173828125,-0.1365961879491806,0.3128311336040497,0.2593846917152405
1782891395725839400,4.30183935546875,-0.2101985067129135,0.2581300735473633,0.27762627601623535
1782891395735861500,4.311861572265625,-0.2602717876434326,0.23335309326648712,0.30711227655410767
1782891395745883400,4.32188330078125,-0.2867681086063385,0.24262729287147522,0.3478597104549408
1782891395755905300,4.3319052734375,-0.2985701858997345,0.27348026633262634,0.38012710213661194
1782891395765927700,4.341927734375,-0.3044690787792206,0.29253360629081726,0.3970296382904053
1782891395775949600,4.351949462890625,-0.31050992012023926,0.30913200974464417,0.39690741896629333
1782891395785971500,4.361971435546875,-0.32135218381881714,0.32400229573249817,0.3839071989059448
1782891395795993600,4.37199365234375,-0.32884687185287476,0.33168500661849976,0.3621283769607544
1782891395806015500,4.382015380859375,-0.34395524859428406,0.33468371629714966,0.3237612843513489
1782891395816037400,4.392037353515625,-0.37000682950019836,0.32467713952064514,0.2700541317462921
1782891395826059300,4.402059326171875,-0.4140019714832306,0.294352263212204,0.2056567519903183
1782891395836081400,4.412081298828125,-0.473373144865036,0.24054363369941711,0.12250727415084839
1782891395846103600,4.422103515625,-0.5444372296333313,0.1849762499332428,0.04446174204349518
1782891395856124400,4.43212451171875,-0.6157148480415344,0.13884364068508148,-0.03802434727549553
1782891395866146600,4.442146484375,-0.6607281565666199,0.08747818320989609,-0.12958994507789612
1782891395876168400,4.45216845703125,-0.6689783334732056,0.029582392424345016,-0.23356108367443085
1782891395886190300,4.4621904296875,-0.6415307521820068,-0.017651963979005814,-0.33566614985466003
1782891395896212200,4.472212158203125,-0.5862818360328674,-0.048355016857385635,-0.43281668424606323
1782891395906234600,4.482234619140625,-0.5144327282905579,-0.09056132286787033,-0.5270717740058899
1782891395916256500,4.492256591796875,-0.43798452615737915,-0.14441309869289398,-0.5996293425559998
1782891395926278400,4.5022783203125,-0.3612397015094757,-0.19021867215633392,-0.6319723725318909
1782891395936300500,4.512300537109375,-0.30028313398361206,-0.22172147035598755,-0.6154418587684631
1782891395946322400,4.522322509765625,-0.2595825791358948,-0.2436978816986084,-0.5645952224731445
1782891395956344300,4.53234423828125,-0.24696770310401917,-0.2769935131072998,-0.49173271656036377
1782891395966366500,4.542366455078125,-0.25702834129333496,-0.3016085922718048,-0.40481752157211304
1782891395976388400,4.552388427734375,-0.2995672821998596,-0.2946082055568695,-0.29785725474357605
1782891395986410500,4.562410400390625,-0.3557716906070709,-0.2945040762424469,-0.18891692161560059
1782891395996431400,4.572431396484375,-0.41946572065353394,-0.28154194355010986,-0.07947991043329239
1782891396006453500,4.58245361328125,-0.4934845566749573,-0.25712820887565613,0.004101534374058247
1782891396016475400,4.592475341796875,-0.5664149522781372,-0.2661195695400238,0.04722050949931145
1782891396026497300,4.602497314453125,-0.6175172924995422,-0.3340938091278076,0.0374206081032753
1782891396036519400,4.61251953125,-0.6359090805053711,-0.4303026497364044,0.003846936160698533
1782891396046541600,4.62254150390625,-0.6234212517738342,-0.49637967348098755,-0.012915532104671001
1782891396056563500,4.6325634765625,-0.5961640477180481,-0.49718979001045227,0.004582501482218504
1782891396066585600,4.642585693359375,-0.5587306618690491,-0.4714146554470062,0.051844820380210876
1782891396076607500,4.652607421875,-0.5295439958572388,-0.4220380485057831,0.11010999232530594
1782891396086629400,4.66262939453125,-0.4968467950820923,-0.37598347663879395,0.1544942408800125
1782891396096651500,4.672651611328125,-0.47602352499961853,-0.36328792572021484,0.17587915062904358
1782891396106673400,4.68267333984375,-0.47869575023651123,-0.4173804521560669,0.1684204339981079
1782891396116695300,4.6926953125,-0.5078909397125244,-0.5071665644645691,0.14526212215423584
1782891396126717400,4.702717529296875,-0.5597599744796753,-0.611936628818512,0.10812780261039734
1782891396136738600,4.712738525390625,-0.6350070834159851,-0.7185174226760864,0.05655036121606827
1782891396146760400,4.722760498046875,-0.7123463153839111,-0.8369143605232239,0.006876281928271055
1782891396156782300,4.7327822265625,-0.7954385280609131,-0.9408990740776062,-0.02418576367199421
1782891396166804500,4.742804443359375,-0.8796258568763733,-1.0022377967834473,-0.015979764983057976
1782891396176826400,4.752826416015625,-0.9362579584121704,-1.0020731687545776,0.0394214428961277
1782891396186848500,4.7628486328125,-0.9519258737564087,-0.9451302886009216,0.13432691991329193
1782891396196870700,4.77287060546875,-0.9279531836509705,-0.8461901545524597,0.24453118443489075
1782891396206892500,4.782892578125,-0.8746417760848999,-0.7378532886505127,0.33126208186149597
1782891396216914400,4.79291455078125,-0.7935583591461182,-0.6561179161071777,0.36246606707572937
1782891396226936300,4.802936279296875,-0.7009117603302002,-0.6054542064666748,0.3273243308067322
1782891396236958500,4.81295849609375,-0.6180956959724426,-0.5643203854560852,0.23792974650859833
1782891396246980400,4.82298046875,-0.5570257306098938,-0.5106459259986877,0.10286619514226913
1782891396257002200,4.833002197265625,-0.5074235200881958,-0.451331228017807,-0.0531870536506176
1782891396267024600,4.843024658203125,-0.4814217686653137,-0.40698161721229553,-0.20855453610420227
1782891396277045500,4.85304541015625,-0.47238245606422424,-0.37949618697166443,-0.3246627748012543
1782891396287067400,4.8630673828125,-0.47477343678474426,-0.3681870698928833,-0.37834277749061584
1782891396297089300,4.87308935546875,-0.482043594121933,-0.3568207025527954,-0.3637380003929138
1782891396307111400,4.883111328125,-0.48641064763069153,-0.33640411496162415,-0.28777799010276794
1782891396317133300,4.89313330078125,-0.48410090804100037,-0.3004298806190491,-0.1655956208705902
1782891396327155500,4.903155517578125,-0.47745364904403687,-0.24179264903068542,-0.008450742810964584
1782891396337177600,4.913177490234375,-0.4506497383117676,-0.15445348620414734,0.1770823746919632
1782891396347199500,4.923199462890625,-0.39447513222694397,-0.042511772364377975,0.3648698329925537
1782891396357221400,4.933221435546875,-0.32252079248428345,0.10828492790460587,0.5303227305412292
1782891396367243500,4.943243408203125,-0.24743109941482544,0.2728043794631958,0.6272702813148499
1782891396377265400,4.953265380859375,-0.1616237759590149,0.4164113402366638,0.64122474193573
1782891396387287300,4.963287353515625,-0.058890748769044876,0.5095681548118591,0.5743296146392822
1782891396397309400,4.973309326171875,0.040288832038640976,0.5503249168395996,0.4420085847377777
1782891396407331600,4.98333154296875,0.12205027788877487,0.5483595132827759,0.27234628796577454
1782891396417352400,4.9933525390625,0.17513985931873322,0.4926621615886688,0.08490317314863205
1782891396427374300,5.003374267578125,0.20044174790382385,0.3927222490310669,-0.06920463591814041
1782891396437396500,5.013396484375,0.18559490144252777,0.2672860324382782,-0.15956541895866394
1782891396447418000,5.023418212890625,0.14102263748645782,0.12060470879077911,-0.171122744679451
1782891396457440300,5.033440185546875,0.09119542688131332,0.002071140334010124,-0.10745029151439667
1782891396467462400,5.04346240234375,0.05032122880220413,-0.07561939209699631,-0.00005299690383253619
1782891396477484300,5.053484375,0.044557880610227585,-0.10959706455469131,0.12753905355930328
1782891396487506200,5.063506103515625,0.07658985257148743,-0.11232547461986542,0.2394954115152359
1782891396497528300,5.0735283203125,0.1276133507490158,-0.07664071768522263,0.31220608949661255
1782891396507550200,5.08355029296875,0.19456468522548676,-0.009340771473944187,0.33870774507522583
1782891396517572000,5.093572021484375,0.26129525899887085,0.09009207785129547,0.3264486789703369
1782891396527594000,5.103593994140625,0.31618618965148926,0.19485656917095184,0.2745963931083679
1782891396537616100,5.1136162109375,0.3555578291416168,0.27801430225372314,0.19301845133304596
1782891396547638300,5.12363818359375,0.36994796991348267,0.33804088830947876,0.0959683433175087
1782891396557659100,5.1336591796875,0.36863794922828674,0.3837639093399048,-0.00618252856656909
1782891396567681300,5.143681396484375,0.3682805597782135,0.40446946024894714,-0.08311273157596588
1782891396577703200,5.153703125,0.3747134208679199,0.40281614661216736,-0.1349402368068695
1782891396587725000,5.16372509765625,0.3861554265022278,0.3937302529811859,-0.1504366397857666
1782891396597747200,5.173747314453125,0.38429760932922363,0.3628538250923157,-0.1386854499578476
1782891396607769300,5.183769287109375,0.3737006187438965,0.2994450330734253,-0.10799304395914078
1782891396617791200,5.193791259765625,0.34801843762397766,0.21089279651641846,-0.055878181010484695
1782891396627813000,5.203813232421875,0.31553584337234497,0.11194384843111038,0.007186806295067072
1782891396637835300,5.213835205078125,0.2729865312576294,0.04099217429757118,0.07998617738485336
1782891396647857200,5.223857177734375,0.2326745241880417,0.0021856562234461308,0.15030960738658905
1782891396657879000,5.233879150390625,0.20308654010295868,-0.03056936152279377,0.20011205971240997
1782891396667901200,5.243901123046875,0.18373841047286987,-0.06786586344242096,0.22725525498390198
1782891396677923300,5.25392333984375,0.18565374612808228,-0.09807383269071579,0.233811154961586
1782891396687945200,5.2639453125,0.20653054118156433,-0.12179061770439148,0.23370543122291565
1782891396697966000,5.273966064453125,0.24270878732204437,-0.1539464294910431,0.24168239533901215
1782891396707988200,5.28398828125,0.28377819061279297,-0.19425442814826965,0.26015540957450867
1782891396718010000,5.294010009765625,0.3186402916908264,-0.22482219338417053,0.2869921028614044
1782891396728032000,5.304031982421875,0.3415789008140564,-0.25225701928138733,0.308027058839798
1782891396738054400,5.314054443359375,0.34714436531066895,-0.2835440933704376,0.3317433297634125
1782891396748076300,5.324076171875,0.3267325758934021,-0.2998082935810089,0.35703909397125244
1782891396758098200,5.33409814453125,0.30550453066825867,-0.27362754940986633,0.3916929364204407
1782891396768120300,5.344120361328125,0.311604768037796,-0.1998997926712036,0.4295894503593445
1782891396778142200,5.35414208984375,0.367016077041626,-0.0692850649356842,0.45179542899131775
1782891396788164000,5.3641640625,0.4449644088745117,0.10238122940063477,0.39944833517074585
1782891396798186200,5.374186279296875,0.48723623156547546,0.23719391226768494,0.22200749814510345
1782891396808208100,5.3842080078125,0.4646790027618408,0.27651122212409973,-0.07286994904279709
1782891396818230300,5.394230224609375,0.369589239358902,0.24030262231826782,-0.4425196349620819
1782891396828252400,5.40425244140625,0.22285757958889008,0.1394263356924057,-0.8037047386169434
1782891396838273300,5.414273193359375,0.020140156149864197,-0.006876281928271055,-1.0767700672149658
1782891396848295200,5.424295166015625,-0.22380512952804565,-0.14912237226963043,-1.219765067100525
1782891396858317000,5.434317138671875,-0.4416237473487854,-0.2938350737094879,-1.252545952796936
1782891396868339200,5.444339111328125,-0.5957430005073547,-0.44386959075927734,-1.1826834678649902
1782891396878361300,5.454361328125,-0.6824997663497925,-0.5734917521476746,-1.0026026964187622
1782891396888383200,5.46438330078125,-0.6918314695358276,-0.6190017461776733,-0.739402711391449
1782891396898405400,5.4744052734375,-0.6047045588493347,-0.5752012729644775,-0.4190606474876404
1782891396908427300,5.48442724609375,-0.4403392970561981,-0.46856534481048584,-0.13711684942245483
1782891396918449200,5.49444921875,-0.2185610979795456,-0.36686667799949646,0.14290443062782288
1782891396928471000,5.504470947265625,0.0011230550007894635,-0.23419705033302307,0.46181637048721313
1782891396938493200,5.5144931640625,0.14004819095134735,-0.03139600530266762,0.7175799608230591
1782891396948515000,5.52451513671875,0.22237075865268707,0.1835208237171173,0.8701514005661011
1782891396958537200,5.534537109375,0.2927394509315491,0.31117677688598633,0.9203583598136902
1782891396968558300,5.544558349609375,0.35289573669433594,0.3726033866405487,0.8842733502388
1782891396978580200,5.554580322265625,0.37275758385658264,0.3832626938819885,0.803438663482666
1782891396988602000,5.56460205078125,0.3556065857410431,0.39934074878692627,0.7052276730537415
1782891396998624000,5.5746240234375,0.31203246116638184,0.4305897355079651,0.6103741526603699
1782891397008646100,5.584646240234375,0.25143197178840637,0.4414519667625427,0.5202136039733887
1782891397018668300,5.594668212890625,0.18604522943496704,0.390437513589859,0.4133993089199066
1782891397028690200,5.604690185546875,0.09931833297014236,0.2945850193500519,0.29940640926361084
1782891397038712300,5.61471240234375,-0.00986488163471222,0.1874750852584839,0.17920011281967163
1782891397048734200,5.624734130859375,-0.1358896642923355,0.0666717067360878,0.062124889343976974
1782891397058756000,5.634756103515625,-0.2675850987434387,-0.054431550204753876,-0.04049362987279892
1782891397068778200,5.6447783203125,-0.3753539025783539,-0.15487533807754517,-0.1107451543211937
1782891397078800100,5.654800048828125,-0.45859500765800476,-0.2110842764377594,-0.16159981489181519
1782891397088822000,5.664822021484375,-0.5083910822868347,-0.2216692715883255,-0.217576801776886
1782891397098844400,5.674844482421875,-0.5308998227119446,-0.2103702872991562,-0.29583245515823364
1782891397108865300,5.684865234375,-0.5384930372238159,-0.17760567367076874,-0.3970235288143158
1782891397118887200,5.69488720703125,-0.5296028852462769,-0.11031292378902435,-0.5053766369819641
1782891397128909000,5.704908935546875,-0.5107660889625549,-0.03231319785118103,-0.6232113838195801
1782891397138931200,5.71493115234375,-0.476211279630661,0.03849439695477486,-0.7439916133880615
1782891397148953000,5.724953125,-0.4296371340751648,0.09445460140705109,-0.8438917994499207
1782891397158975200,5.734975341796875,-0.39135417342185974,0.14541152119636536,-0.9105616807937622
1782891397168997400,5.744997314453125,-0.3557964563369751,0.18709026277065277,-0.9356779456138611
1782891397179019300,5.755019287109375,-0.31661441922187805,0.22501873970031738,-0.9139279127120972
1782891397189041200,5.765041259765625,-0.27442729473114014,0.2547718286514282,-0.8584449291229248
1782891397199063300,5.775063232421875,-0.23433233797550201,0.28253820538520813,-0.7851118445396423
1782891397209085200,5.785085205078125,-0.19781774282455444,0.2811877429485321,-0.7146773934364319
1782891397219107000,5.795107177734375,-0.17481495440006256,0.24595943093299866,-0.6617598533630371
1782891397229129200,5.805129150390625,-0.13815627992153168,0.19251671433448792,-0.6038360595703125
1782891397239151400,5.8151513671875,-0.07093409448862076,0.13383635878562927,-0.5302904844284058
1782891397249173200,5.82517333984375,0.05427549034357071,0.07332561165094376,-0.4283177852630615
1782891397259194000,5.835194091796875,0.24553678929805756,0.022176941856741905,-0.29058441519737244
1782891397269216300,5.84521630859375,0.49172526597976685,-0.02901460789144039,-0.1227131336927414
1782891397279238100,5.855238037109375,0.750085711479187,-0.08503260463476181,0.04874303936958313
1782891397289260000,5.865260009765625,0.9917116761207581,-0.13431279361248016,0.20076745748519897
1782891397299282400,5.875282470703125,1.1906445026397705,-0.15937155485153198,0.314302533864975
1782891397309304300,5.88530419921875,1.337361454963684,-0.14168763160705566,0.41073694825172424
1782891397319326200,5.895326171875,1.4263709783554077,-0.08961803466081619,0.48576751351356506
1782891397329348000,5.90534814453125,1.469671607017517,-0.025108283385634422,0.5561000108718872
1782891397339370200,5.915370361328125,1.4739477634429932,0.04953213408589363,0.6307957768440247
1782891397349392100,5.92539208984375,1.458545446395874,0.14796043932437897,0.7292113304138184
1782891397359414000,5.9354140625,1.4668304920196533,0.29126405715942383,0.8380874395370483
1782891397369436200,5.945436279296875,1.5352604389190674,0.44850534200668335,0.9485117197036743
1782891397379458300,5.955458251953125,1.64713454246521,0.5734161138534546,1.0151416063308716
1782891397389479200,5.965479248046875,1.7877235412597656,0.6703820824623108,1.0378639698028564
1782891397399501000,5.9755009765625,1.9328423738479614,0.7739417552947998,1.0260951519012451
1782891397409523200,5.985523193359375,2.0323493480682373,0.833850622177124,0.9513159990310669
1782891397419545000,5.995545166015625,2.064727783203125,0.8276817202568054,0.8096417188644409
1782891397429567000,6.00556689453125,2.0472116470336914,0.7866154909133911,0.6252154111862183
1782891397439589400,6.01558935546875,2.002335786819458,0.7344364523887634,0.4110732972621918
1782891397449611500,6.025611572265625,1.9397101402282715,0.6738032102584839,0.2062695473432541
1782891397459633400,6.03563330078125,1.8660439252853394,0.6324269771575928,0.05005038529634476
1782891397469655300,6.0456552734375,1.7869621515274048,0.635014533996582,-0.021521802991628647
1782891397479677400,6.055677490234375,1.7253241539001465,0.6764554381370544,-0.009411877952516079
1782891397489699300,6.06569921875,1.7089672088623047,0.7533696293830872,0.08199233561754227
1782891397499721200,6.07572119140625,1.7574602365493774,0.8457717299461365,0.22641396522521973
1782891397509743000,6.0857431640625,1.8625857830047607,0.9329455494880676,0.41371461749076843
1782891397519765500,6.095765625,2.0315613746643066,1.008886694908142,0.5961496829986572
1782891397529786400,6.105786376953125,2.2388601303100586,1.0513815879821777,0.7395979166030884
1782891397539808300,6.115808349609375,2.4399666786193848,1.0544154644012451,0.8048725128173828
1782891397549830400,6.125830322265625,2.5908520221710205,1.0273377895355225,0.7548474669456482
1782891397559852300,6.135852294921875,2.689135789871216,0.9692705273628235,0.6184331178665161
1782891397569874200,6.145874267578125,2.748486280441284,0.9022808074951172,0.4287438988685608
1782891397579896300,6.155896240234375,2.7515761852264404,0.8332011103630066,0.24133272469043732
1782891397589918500,6.16591845703125,2.71185302734375,0.7305383682250977,0.09814387559890747
1782891397599940400,6.1759404296875,2.6364264488220215,0.5946223735809326,0.016633838415145874
1782891397609962200,6.185962158203125,2.548261880874634,0.44153958559036255,-0.01327026542276144
1782891397619984400,6.195984375,2.4479215145111084,0.2962247431278229,0.0115573201328516
1782891397630006300,6.20600634765625,2.356219530105591,0.17911729216575623,0.08843505382537842
1782891397640028200,6.216028076171875,2.277404308319092,0.11610743403434753,0.20609590411186218
1782891397650050300,6.22605029296875,2.220184803009033,0.0895322784781456,0.34244683384895325
1782891397660072400,6.236072509765625,2.1925671100616455,0.1114780604839325,0.48038312792778015
1782891397670093300,6.24609326171875,2.190324068069458,0.18142731487751007,0.6043007969856262
1782891397680115200,6.256115234375,2.2214012145996094,0.30299076437950134,0.7066285014152527
1782891397690137300,6.266137451171875,2.271395206451416,0.45759499073028564,0.7806643843650818
1782891397700159200,6.2761591796875,2.328824281692505,0.6246742606163025,0.8113410472869873
1782891397710181000,6.28618115234375,2.3666324615478516,0.761587381362915,0.7960795760154724
1782891397720203500,6.29620361328125,2.364777088165283,0.8682877421379089,0.7271489500999451
1782891397730225400,6.306225341796875,2.3386943340301514,0.9355764985084534,0.6229477524757385
1782891397740247300,6.316247314453125,2.2905561923980713,0.9879632592201233,0.5004649758338928
1782891397750269400,6.32626953125,2.222083330154419,1.0228780508041382,0.3738952875137329
1782891397760291300,6.336291259765625,2.1240928173065186,1.0303163528442383,0.2522311806678772
1782891397770313200,6.346313232421875,2.0043222904205322,1.0370290279388428,0.16122111678123474
1782891397780335400,6.35633544921875,1.8646159172058105,1.0460039377212524,0.11006604880094528
1782891397790357200,6.366357177734375,1.7071589231491089,1.0420845746994019,0.07828761637210846
1782891397800379400,6.37637939453125,1.5351576805114746,1.007028341293335,0.06269320845603943
1782891397810400300,6.386400146484375,1.3521255254745483,0.9336525797843933,0.038480281829833984
1782891397820422400,6.39642236328125,1.171485424041748,0.8245932459831238,0.0003534014686010778
1782891397830444300,6.4064443359375,1.0117508172988892,0.7058117389678955,-0.041968487203121185
1782891397840466200,6.416466064453125,0.8846307396888733,0.609478235244751,-0.09507778286933899
1782891397850488300,6.42648828125,0.7841736078262329,0.550523579120636,-0.13011805713176727
1782891397860510500,6.436510498046875,0.7211030721664429,0.5247340798377991,-0.14641819894313812
1782891397870532400,6.446532470703125,0.6657260656356812,0.5298843383789062,-0.15101587772369385
1782891397880554500,6.456554443359375,0.6224228143692017,0.5731626152992249,-0.13336418569087982
1782891397890576400,6.466576416015625,0.6009188890457153,0.6593003869056702,-0.10681166499853134
1782891397900598300,6.476598388671875,0.6035098433494568,0.7820430994033813,-0.06457206606864929
1782891397910620200,6.4866201171875,0.6402646899223328,0.9393938779830933,-0.02700711600482464
1782891397920642300,6.496642333984375,0.7002601027488708,1.0862120389938354,-0.009913883171975613
1782891397930664200,6.506664306640625,0.7433098554611206,1.1838587522506714,-0.06260905414819717
1782891397940685300,6.516685302734375,0.7576530575752258,1.246354579925537,-0.1796901375055313
1782891397950707500,6.52670751953125,0.7305149435997009,1.3106236457824707,-0.35927799344062805
1782891397960729300,6.536729248046875,0.645403265953064,1.3730260133743286,-0.5938684344291687
1782891397970751200,6.546751220703125,0.4923369884490967,1.3710358142852783,-0.8833345770835876
1782891397980773000,6.556773193359375,0.2810228765010834,1.2786821126937866,-1.1778067350387573
1782891397990795300,6.566795166015625,0.0399913564324379,1.132181167602539,-1.4135204553604126
1782891398000817400,6.5768173828125,-0.1656009405851364,0.9732327461242676,-1.5150725841522217
1782891398010839300,6.58683935546875,-0.29417410492897034,0.8226171731948853,-1.4795081615447998
1782891398020861400,6.596861328125,-0.35101714730262756,0.6985948085784912,-1.3288872241973877
1782891398030883300,6.60688330078125,-0.3137912154197693,0.6340797543525696,-1.084212064743042
1782891398040905200,6.6169052734375,-0.19060510396957397,0.6259214282035828,-0.7923322319984436
1782891398050927400,6.62692724609375,-0.004265318624675274,0.6303691864013672,-0.5068932771682739
1782891398060949200,6.63694921875,0.22158539295196533,0.6263437867164612,-0.2654300630092621
1782891398070971100,6.64697119140625,0.4417033791542053,0.5910348296165466,-0.1045149564743042
1782891398080992300,6.6569921875,0.6248286962509155,0.5492298603057861,-0.01194028276950121
1782891398091014400,6.667014404296875,0.758529543876648,0.5239311456680298,0.018699917942285538
1782891398101036300,6.677036376953125,0.8448833227157593,0.5109045505523682,0.009512810967862606
1782891398111058200,6.68705810546875,0.8870121240615845,0.5124877691268921,-0.03437501937150955
1782891398121080300,6.697080322265625,0.8924902677536011,0.4989304542541504,-0.09796624630689621
1782891398131102200,6.707102294921875,0.8729647397994995,0.4537517726421356,-0.16928915679454803
1782891398141124400,6.717124267578125,0.8355113863945007,0.37383776903152466,-0.23977957665920258
1782891398151146500,6.727146484375,0.8125996589660645,0.2652532458305359,-0.27174097299575806
1782891398161168400,6.73716845703125,0.8140524625778198,0.14851704239845276,-0.25345996022224426
1782891398171190300,6.747190185546875,0.8349803686141968,0.0418156236410141,-0.1899198740720749
1782891398181212400,6.75721240234375,0.8672628998756409,-0.0355721078813076,-0.09593691676855087
1782891398191234300,6.767234375,0.8904220461845398,-0.07363667339086533,-0.0032501218374818563
1782891398201256200,6.777256103515625,0.8954953551292419,-0.08173348009586334,0.06285645812749863
1782891398211278300,6.7872783203125,0.8757506608963013,-0.06005481630563736,0.08325334638357162
1782891398221299500,6.797299560546875,0.8460881114006042,-0.024525582790374756,0.07105420529842377
1782891398231321300,6.8073212890625,0.8166868090629578,0.032270852476358414,0.03772580623626709
1782891398241343200,6.81734326171875,0.7958524227142334,0.09923257678747177,0.0003323625132907182
1782891398251365400,6.827365478515625,0.7832964062690735,0.1650635153055191,-0.02876134030520916
1782891398261387300,6.83738720703125,0.7897460460662842,0.22610238194465637,-0.03364824131131172
1782891398271409200,6.8474091796875,0.808742344379425,0.27742627263069153,-0.011952799744904041
1782891398281431600,6.857431640625,0.8333912491798401,0.3140612542629242,0.027124561369419098
1782891398291453400,6.867453369140625,0.8581604957580566,0.34904932975769043,0.08110310882329941
1782891398301475300,6.877475341796875,0.8675279021263123,0.37952920794487,0.14466583728790283
1782891398311497200,6.887497314453125,0.8623057007789612,0.4054609537124634,0.19666911661624908
1782891398321519400,6.897519287109375,0.8348751664161682,0.4146040976047516,0.2274981439113617
1782891398331541200,6.907541259765625,0.78371661901474,0.400821715593338,0.23566898703575134
1782891398341563100,6.917563232421875,0.7226556539535522,0.36609914898872375,0.2209680676460266
1782891398351584500,6.92758447265625,0.6564604043960571,0.3226832449436188,0.20058690011501312
1782891398361606400,6.9376064453125,0.5924047231674194,0.2955525517463684,0.19820868968963623
1782891398371628300,6.947628173828125,0.5428507924079895,0.2960745394229889,0.2115974724292755
1782891398381650200,6.957650146484375,0.5113309025764465,0.315719872713089,0.24602948129177094
1782891398391672300,6.96767236328125,0.49141019582748413,0.3336975574493408,0.29167526960372925
1782891398401694200,6.977694091796875,0.48749589920043945,0.33969685435295105,0.3295914828777313
1782891398411716000,6.987716064453125,0.4774177074432373,0.3369111716747284,0.35539138317108154
1782891398421738500,6.997738525390625,0.4703712463378906,0.309928834438324,0.3720044493675232
1782891398431760400,7.007760498046875,0.4666963517665863,0.27142298221588135,0.38541293144226074
1782891398441782500,7.017782470703125,0.4759705364704132,0.24030980467796326,0.39750367403030396
1782891398451804400,7.027804443359375,0.5104992389678955,0.22946088016033173,0.4237659275531769
1782891398461826600,7.03782666015625,0.5707092881202698,0.24288827180862427,0.4645010828971863
1782891398471848400,7.047848388671875,0.6484085917472839,0.2753570079803467,0.5092983841896057
1782891398481870300,7.057870361328125,0.7381134629249573,0.3131411373615265,0.5376386642456055
1782891398491891500,7.067891357421875,0.8348621129989624,0.3208318054676056,0.5279053449630737
1782891398501913600,7.07791357421875,0.9252505898475647,0.29230403900146484,0.4643554091453552
1782891398511935500,7.087935546875,1.0127679109573364,0.27377748489379883,0.34839579463005066
1782891398521957400,7.097957275390625,1.0860064029693604,0.267636239528656,0.17196564376354218
1782891398531979500,7.1079794921875,1.1073788404464722,0.25996819138526917,-0.0339939184486866
1782891398542001400,7.11800146484375,1.039385199546814,0.2586456835269928,-0.23169314861297607
1782891398552023300,7.128023193359375,0.8807097673416138,0.2384202927350998,-0.3839673697948456
1782891398562045400,7.13804541015625,0.6660959720611572,0.15573953092098236,-0.481588751077652
1782891398572067600,7.148067626953125,0.4506867527961731,0.04641250520944595,-0.5095497965812683
1782891398582089500,7.15808935546875,0.3039276599884033,-0.06292810291051865,-0.46812114119529724
1782891398592111400,7.168111328125,0.24056866765022278,-0.16475512087345123,-0.3740529417991638
1782891398602133500,7.178133544921875,0.2355552613735199,-0.2581934630870819,-0.2235124558210373
1782891398612155400,7.1881552734375,0.2634446918964386,-0.3112284541130066,-0.023623570799827576
1782891398622176500,7.198176513671875,0.3275677561759949,-0.318557471036911,0.19935917854309082
1782891398632198400,7.208198486328125,0.4120735824108124,-0.2755391597747803,0.4231421947479248
1782891398642220500,7.218220458984375,0.51600581407547,-0.17961609363555908,0.6053199768066406
1782891398652242400,7.228242431640625,0.6292152404785156,-0.05109380930662155,0.7060130834579468
1782891398662264300,7.238264404296875,0.7371518015861511,0.10201957821846008,0.7144187688827515
1782891398672286500,7.248286376953125,0.8254987001419067,0.2703191041946411,0.6439451575279236
1782891398682308400,7.258308349609375,0.8946287631988525,0.44791972637176514,0.5153839588165283
1782891398692330200,7.268330322265625,0.9500366449356079,0.5922894477844238,0.34054505825042725
1782891398702352600,7.2783525390625,0.9882063865661621,0.6709871888160706,0.14628663659095764
1782891398712374500,7.28837451171875,1.0068572759628296,0.6915478110313416,-0.034640002995729446
1782891398722396400,7.298396484375,1.0049887895584106,0.6892977356910706,-0.18460632860660553
1782891398732418600,7.30841845703125,0.9946131706237793,0.6620093584060669,-0.28540006279945374
1782891398742440400,7.3184404296875,0.9835037589073181,0.6118202209472656,-0.3220432996749878
1782891398752462300,7.32846240234375,0.9655556678771973,0.5380666851997375,-0.2963014245033264
1782891398762483500,7.3384833984375,0.9483716487884521,0.4521072804927826,-0.22772637009620667
1782891398772505600,7.348505615234375,0.935694694519043,0.35614213347435,-0.132751926779747
1782891398782527500,7.358527587890625,0.9157614707946777,0.2669006586074829,-0.04145529866218567
1782891398792549400,7.36854931640625,0.9051847457885742,0.20188918709754944,0.021521802991628647
1782891398802571500,7.378571533203125,0.8981092572212219,0.18124648928642273,0.05853734537959099
1782891398812593400,7.388593505859375,0.8928101062774658,0.186158686876297,0.05173217132687569
1782891398822615300,7.398615234375,0.8813241720199585,0.21112608909606934,0.013686250895261765
1782891398832637400,7.408637451171875,0.874258816242218,0.23514620959758759,-0.05134414881467819
1782891398842659600,7.41865966796875,0.8720459938049316,0.2649664282798767,-0.1189436987042427
1782891398852681500,7.428681396484375,0.8726789951324463,0.28263407945632935,-0.18603378534317017
1782891398862703600,7.43870361328125,0.8697383403778076,0.28309163451194763,-0.2376740723848343
1782891398872725500,7.4487255859375,0.8568933606147766,0.25747841596603394,-0.2698546350002289
1782891398882747400,7.458747314453125,0.8337587714195251,0.21247391402721405,-0.29552245140075684
1782891398892768300,7.468768310546875,0.8061508536338806,0.1477564424276352,-0.31596168875694275
1782891398902790700,7.478790771484375,0.7661381959915161,0.08995865285396576,-0.3484804928302765
1782891398912812500,7.4888125,0.7151860594749451,0.044313669204711914,-0.3919544517993927
1782891398922834400,7.49883447265625,0.6531351804733276,-0.00487092137336731,-0.45144468545913696
1782891398932856600,7.508856689453125,0.6014882326126099,-0.05684597045183182,-0.5260022878646851
1782891398942878500,7.51887841796875,0.5470401644706726,-0.0909365639090538,-0.5999689102172852
1782891398952900400,7.528900390625,0.4915153980255127,-0.11115182191133499,-0.666027843952179
1782891398962922200,7.538922119140625,0.4409142732620239,-0.10351733863353729,-0.7222476601600647
1782891398972944400,7.5489443359375,0.390694797039032,-0.08033958077430725,-0.7667896151542664
1782891398982966500,7.558966552734375,0.3428758680820465,-0.05898315832018852,-0.8157749772071838
1782891398992988400,7.568988525390625,0.29737815260887146,-0.05314977094531059,-0.851548969745636
1782891399003010600,7.579010498046875,0.2629812955856323,-0.04658854007720947,-0.8541859984397888
1782891399013032400,7.589032470703125,0.229886993765831,-0.062186941504478455,-0.8338788747787476
1782891399023054300,7.599054443359375,0.17857614159584045,-0.14663444459438324,-0.805755615234375
1782891399033075500,7.609075439453125,0.10946444422006607,-0.27675116062164307,-0.7424408197402954
1782891399043097600,7.61909765625,0.02316710352897644,-0.44190844893455505,-0.6356363892555237
1782891399053119500,7.629119384765625,-0.0661446675658226,-0.5732656717300415,-0.48885011672973633
1782891399063141400,7.639141357421875,-0.11943797767162323,-0.6181516647338867,-0.32199373841285706
1782891399073163500,7.64916357421875,-0.12966105341911316,-0.6141225695610046,-0.16655808687210083
1782891399083185400,7.659185302734375,-0.13174791634082794,-0.6108266115188599,-0.07628252357244492
1782891399093207300,7.669207275390625,-0.17658595740795135,-0.6338227391242981,-0.06810209155082703
1782891399103229400,7.6792294921875,-0.2655371427536011,-0.6260631084442139,-0.13515861332416534
1782891399113251300,7.689251220703125,-0.3727338910102844,-0.5832629203796387,-0.26739442348480225
1782891399123273500,7.6992734375,-0.48478931188583374,-0.5052030086517334,-0.4466280937194824
1782891399133295600,7.709295654296875,-0.5997063517570496,-0.4363645315170288,-0.6552265882492065
1782891399143317500,7.7193173828125,-0.7203408479690552,-0.3852430284023285,-0.8441445827484131
1782891399153339400,7.72933935546875,-0.8242909908294678,-0.35465556383132935,-0.961986243724823
1782891399163361500,7.739361572265625,-0.8930540680885315,-0.34039726853370667,-0.9847743511199951
1782891399173382400,7.74938232421875,-0.9225229620933533,-0.2966447174549103,-0.9047181606292725
1782891399183404500,7.759404541015625,-0.915055513381958,-0.23276746273040771,-0.7369230389595032
1782891399193426400,7.769426513671875,-0.8676746487617493,-0.14903102815151215,-0.4761252701282501
1782891399203448600,7.779448486328125,-0.7983142137527466,-0.013197827152907848,-0.1431422382593155
1782891399213470500,7.789470458984375,-0.7204939723014832,0.17976176738739014,0.189649298787117
1782891399223492400,7.799492431640625,-0.6243517398834229,0.37387052178382874,0.47650662064552307
1782891399233514500,7.809514404296875,-0.5160955786705017,0.5077692270278931,0.7495498657226562
1782891399243536400,7.819536376953125,-0.42625996470451355,0.5802218317985535,0.8768604397773743
1782891399253558300,7.829558349609375,-0.3739320635795593,0.6026331186294556,0.8637377023696899
1782891399263580700,7.83958056640625,-0.32957923412323,0.5344431400299072,0.719521701335907
1782891399273602600,7.8496025390625,-0.3045332729816437,0.39512574672698975,0.5016500353813171
1782891399283624400,7.85962451171875,-0.32375195622444153,0.24118518829345703,0.2545875310897827
1782891399293646300,7.869646240234375,-0.41452741622924805,0.07991161197423935,0.014927816577255726
1782891399303667500,7.87966748046875,-0.5717343688011169,-0.0957808569073677,-0.18257859349250793
1782891399313689300,7.889689453125,-0.7689992189407349,-0.2824910879135132,-0.3080427944660187
1782891399323711500,7.89971142578125,-0.970354437828064,-0.4690425992012024,-0.3601565957069397
1782891399333733600,7.909733642578125,-1.147438645362854,-0.630995512008667,-0.32927483320236206
1782891399343755500,7.919755615234375,-1.2889691591262817,-0.7451026439666748,-0.23476989567279816
1782891399353777400,7.92977734375,-1.3914910554885864,-0.8287975788116455,-0.0922260656952858
1782891399363799600,7.939799560546875,-1.4680715799331665,-0.8691790699958801,0.05567551404237747
1782891399373821400,7.949821533203125,-1.5085805654525757,-0.8624112010002136,0.1765768975019455
1782891399383843300,7.95984326171875,-1.5201432704925537,-0.8297991752624512,0.23635101318359375
1782891399393865500,7.969865478515625,-1.496440052986145,-0.7472502589225769,0.23923362791538239
1782891399403887600,7.9798876953125,-1.4437263011932373,-0.6288463473320007,0.19236332178115845
1782891399413909500,7.989909423828125,-1.3702051639556885,-0.4801200032234192,0.11886832863092422
1782891399423931400,7.999931396484375,-1.2765787839889526,-0.3154764771461487,0.027116039767861366
1782891399433952500,8.009952392578125,-1.194142460823059,-0.15595205128192902,-0.07633178681135178
1782891399443974400,8.019974365234376,-1.1194411516189575,-0.013513944111764431,-0.17556916177272797
1782891399453996500,8.02999658203125,-1.0550740957260132,0.07743646949529648,-0.2669467329978943
1782891399464018400,8.040018310546875,-0.99083012342453,0.09805119782686234,-0.35306432843208313
1782891399474040600,8.05004052734375,-0.930075466632843,0.048718005418777466,-0.42476886510849
1782891399484062500,8.0600625,-0.8593690395355225,-0.0554715134203434,-0.4789178669452667
1782891399494084400,8.07008447265625,-0.7706945538520813,-0.17057253420352936,-0.5096765756607056
1782891399504106500,8.0801064453125,-0.6637297868728638,-0.28401148319244385,-0.5120497345924377
1782891399514128400,8.09012841796875,-0.5540818572044373,-0.39104312658309937,-0.4799162745475769
1782891399524150300,8.100150390625,-0.45210620760917664,-0.4986087381839752,-0.43459033966064453
1782891399534172400,8.11017236328125,-0.37415334582328796,-0.611033022403717,-0.3797345459461212
1782891399544194600,8.120194580078126,-0.3368232846260071,-0.6995083093643188,-0.33689865469932556
1782891399554216400,8.130216552734375,-0.340040922164917,-0.7590347528457642,-0.3038901090621948
1782891399564237300,8.1402373046875,-0.37549158930778503,-0.8020181655883789,-0.2915245294570923
1782891399574259500,8.150259521484376,-0.43062248826026917,-0.8166780471801758,-0.28740808367729187
1782891399584281300,8.16028125,-0.4854431450366974,-0.797080934047699,-0.3025345504283905
1782891399594303500,8.170303466796875,-0.5214325785636902,-0.7631586194038391,-0.3460463583469391
1782891399604325600,8.18032568359375,-0.5516898036003113,-0.7594413757324219,-0.4253092110157013
1782891399614347500,8.190347412109375,-0.5851215124130249,-0.7615266442298889,-0.5159754753112793
1782891399624369400,8.200369384765626,-0.6196795105934143,-0.7523312568664551,-0.5929349660873413
1782891399634391600,8.2103916015625,-0.646981954574585,-0.7562261819839478,-0.634949803352356
1782891399644413400,8.220413330078125,-0.6562830209732056,-0.7554429173469543,-0.5976783037185669
1782891399654435300,8.230435302734374,-0.6313196420669556,-0.7163554430007935,-0.4515930116176605
1782891399664457500,8.24045751953125,-0.6067418456077576,-0.61985182762146,-0.22269219160079956
1782891399674479400,8.250479248046876,-0.6094372272491455,-0.5012122392654419,-0.047381363809108734
1782891399684501500,8.26050146484375,-0.6362882852554321,-0.42798730731010437,0.0626431405544281
1782891399694522400,8.2705224609375,-0.6995202898979187,-0.41887450218200684,0.10241904854774475
1782891399704544500,8.28054443359375,-0.7742682695388794,-0.42351585626602173,0.012656406499445438
1782891399714566400,8.29056640625,-0.8595911860466003,-0.42876601219177246,-0.1679040491580963
1782891399724588300,8.30058837890625,-0.969975471496582,-0.4550633728504181,-0.3991639018058777
1782891399734610400,8.3106103515625,-1.1426804065704346,-0.44947129487991333,-0.6161052584648132
1782891399744632600,8.320632568359375,-1.357006311416626,-0.3709256052970886,-0.8006748557090759
1782891399754654500,8.330654541015624,-1.5454288721084595,-0.24193033576011658,-0.9449153542518616
1782891399764676600,8.340676513671875,-1.638024091720581,-0.11035340279340744,-1.0510282516479492
1782891399774698500,8.350698486328126,-1.6655553579330444,0.056287508457899094,-1.0825635194778442
1782891399784720400,8.360720458984375,-1.6452404260635376,0.24702602624893188,-1.0529041290283203
1782891399794742300,8.3707421875,-1.5532170534133911,0.4096567630767822,-0.9603704810142517
1782891399804764400,8.380764404296874,-1.3884267807006836,0.5649720430374146,-0.8668895363807678
1782891399814786600,8.39078662109375,-1.1631171703338623,0.6788418889045715,-0.7345605492591858
1782891399824808400,8.400808349609376,-0.9017298221588135,0.6572937369346619,-0.5808386206626892
1782891399834829600,8.41082958984375,-0.6915292143821716,0.6044771075248718,-0.4199272394180298
1782891399844851500,8.4208515625,-0.5277360081672668,0.46007704734802246,-0.2935996651649475
1782891399854873300,8.430873291015626,-0.40725353360176086,0.271370530128479,-0.20217840373516083
1782891399864895200,8.440895263671875,-0.3534899055957794,0.10461322963237762,-0.12778939306735992
1782891399874917600,8.450917724609376,-0.37512966990470886,-0.02021286077797413,-0.06400801241397858
1782891399884939500,8.460939453125,-0.46536344289779663,-0.13419614732265472,-0.017066068947315216
1782891399894961400,8.47096142578125,-0.5803464651107788,-0.25381895899772644,0.028657743707299232
1782891399904983600,8.480983642578124,-0.6863232254981995,-0.352929025888443,0.08221764117479324
1782891399915005400,8.49100537109375,-0.7515509724617004,-0.422563761472702,0.15791133046150208
1782891399925027300,8.50102734375,-0.7637935280799866,-0.45794546604156494,0.238947331905365
1782891399935049500,8.511049560546875,-0.7299061417579651,-0.4486142694950104,0.32023340463638306
1782891399945071400,8.5210712890625,-0.6777284145355225,-0.388789564371109,0.39390337467193604
1782891399955093500,8.531093505859374,-0.6065719723701477,-0.2781221568584442,0.45913854241371155
1782891399965114400,8.5411142578125,-0.5059084296226501,-0.1341703236103058,0.525940477848053
1782891399975136500,8.551136474609375,-0.38230395317077637,0.049136120826005936,0.5940852165222168
1782891399985158400,8.561158447265624,-0.22058776021003723,0.21954300999641418,0.6529735326766968
1782891399995180300,8.57118017578125,-0.08163973689079285,0.4643431603908539,0.6942160725593567
1782891400005202400,8.581202392578126,0.06505090743303299,0.6700571775436401,0.6724790334701538
1782891400015224600,8.591224609375,0.21772752702236176,0.8050118088722229,0.6042150259017944
1782891400025246500,8.60124658203125,0.3710305392742157,0.889215886592865,0.49650856852531433
1782891400035268600,8.6112685546875,0.48922961950302124,0.9763146042823792,0.373881459236145
1782891400045290500,8.62129052734375,0.566432535648346,1.0181975364685059,0.23977024853229523
1782891400055312400,8.6313125,0.6263456344604492,0.9614291191101074,0.12629827857017517
1782891400065334500,8.64133447265625,0.6448000073432922,0.8546915054321289,0.0695633664727211
1782891400075356400,8.6513564453125,0.6145275831222534,0.7408338785171509,0.08196038007736206
1782891400085378300,8.66137841796875,0.5662844777107239,0.6084936857223511,0.15436241030693054
1782891400095400400,8.671400390625,0.5263330340385437,0.47217366099357605,0.2585519254207611
1782891400105421600,8.681421630859376,0.5037822127342224,0.34712785482406616,0.37324655055999756
1782891400115443500,8.691443359375,0.49903005361557007,0.25809597969055176,0.4696362018585205
1782891400125465300,8.70146533203125,0.5092315673828125,0.20286522805690765,0.5471283197402954
1782891400135487500,8.711487548828124,0.5261721611022949,0.17912261188030243,0.610077440738678
1782891400145509400,8.72150927734375,0.5490508675575256,0.19266851246356964,0.6570377945899963
1782891400155531500,8.731531494140626,0.5793735980987549,0.2137831300497055,0.6926213502883911
1782891400165553700,8.7415537109375,0.6168094277381897,0.2246655970811844,0.7133188843727112
1782891400175575600,8.751575439453125,0.6455203890800476,0.21610087156295776,0.7184553146362305
1782891400185597400,8.761597412109374,0.6695024371147156,0.16375510394573212,0.7124312520027161
1782891400195619300,8.771619384765625,0.685374915599823,0.08688616007566452,0.6856332421302795
1782891400205641500,8.781641357421876,0.698237955570221,-0.025419073179364204,0.6360366344451904
1782891400215663400,8.791663330078125,0.6930221319198608,-0.17804083228111267,0.5509326457977295
1782891400225685200,8.801685302734375,0.6627295017242432,-0.3563072383403778,0.4366217851638794
1782891400235706600,8.81170654296875,0.6076963543891907,-0.5242520570755005,0.30327385663986206
1782891400245728500,8.821728515625,0.5369686484336853,-0.6756815314292908,0.1707640141248703
1782891400255750400,8.83175048828125,0.458731085062027,-0.7867270708084106,0.052019789814949036
1782891400265772300,8.841772216796874,0.407472163438797,-0.8082837462425232,-0.029394106939435005
1782891400275794400,8.85179443359375,0.3954820930957794,-0.7513701319694519,-0.09533504396677017
1782891400285816300,8.86181640625,0.38683560490608215,-0.6938626766204834,-0.2070610374212265
1782891400295838500,8.87183837890625,0.32934141159057617,-0.6558119058609009,-0.36226099729537964
1782891400305860600,8.881860595703126,0.23692652583122253,-0.5806138515472412,-0.5303504467010498
1782891400315882500,8.891882568359375,0.12880565226078033,-0.4647834002971649,-0.68343585729599
1782891400325904400,8.901904296875,0.01263776421546936,-0.3506818413734436,-0.8255921602249146
1782891400335926500,8.911926513671874,-0.11217553913593292,-0.2766081690788269,-0.9317862391471863
1782891400345948400,8.921948486328125,-0.2512969374656677,-0.25552845001220703,-0.9632472395896912
1782891400355970300,8.93197021484375,-0.39573827385902405,-0.26206862926483154,-0.9068465828895569
1782891400365991400,8.941991455078124,-0.5074448585510254,-0.2766350507736206,-0.7639970183372498
1782891400376013600,8.952013671875,-0.549990713596344,-0.2573029100894928,-0.5662053823471069
1782891400386035500,8.962035400390626,-0.5199022889137268,-0.17556463181972504,-0.31075015664100647
1782891400396057300,8.972057373046875,-0.43181079626083374,-0.04785540699958801,0.023850204423069954
1782891400406079500,8.98207958984375,-0.30547577142715454,0.12521757185459137,0.3421719968318939
1782891400416101400,8.992101318359374,-0.184681698679924,0.34361302852630615,0.5432510375976562
1782891400426123300,9.002123291015625,-0.07820745557546616,0.5459743738174438,0.6024890542030334
1782891400436145700,9.012145751953126,0.012322446331381798,0.6993991136550903,0.5509355664253235
1782891400446166800,9.022166748046875,0.09294138848781586,0.8023960590362549,0.43988096714019775
1782891400456188700,9.032188720703125,0.14303384721279144,0.87838214635849,0.2922630310058594
1782891400466210600,9.04221044921875,0.17868559062480927,0.9065048694610596,0.15327318012714386
1782891400476232700,9.052232666015625,0.19699402153491974,0.8851905465126038,0.05227145925164223
1782891400486254600,9.062254638671876,0.19057713449001312,0.8263469338417053,0.005609150044620037
1782891400496275700,9.072275634765624,0.16296708583831787,0.7247726321220398,-0.001156877144239843
1782891400506297600,9.082297607421875,0.12367826700210571,0.5809363722801208,0.016893496736884117
1782891400516319700,9.09231982421875,0.09213179349899292,0.39734309911727905,0.05029912292957306
1782891400526341600,9.102341552734375,0.07364492863416672,0.1993921995162964,0.0978860855102539
1782891400536363500,9.112363525390625,0.0730169489979744,0.011096060276031494,0.16041657328605652
1782891400546385700,9.1223857421875,0.09237387031316757,-0.14745789766311646,0.2185874730348587
1782891400556407800,9.13240771484375,0.12148009240627289,-0.27628272771835327,0.23114027082920074
1782891400566429700,9.1424296875,0.16375137865543365,-0.36364585161209106,0.19154119491577148
1782891400576451800,9.152451904296875,0.21858985722064972,-0.41164159774780273,0.09472118318080902
1782891400586473700,9.1624736328125,0.27703800797462463,-0.4082231819629669,-0.02773495763540268
1782891400596495600,9.17249560546875,0.3281049132347107,-0.35619112849235535,-0.14993862807750702
1782891400606517800,9.182517822265625,0.360287070274353,-0.26606497168540955,-0.2547971308231354
1782891400616539600,9.19253955078125,0.3688288927078247,-0.1695815771818161,-0.325507253408432
1782891400626560800,9.202560791015625,0.3717639744281769,-0.08647496998310089,-0.355506956577301
1782891400636582700,9.212582763671875,0.37124064564704895,-0.01852921023964882,-0.3409288227558136
1782891400646604800,9.222604736328124,0.3808639943599701,0.027717381715774536,-0.291738897562027
1782891400656626700,9.232626708984375,0.39433586597442627,0.02298121526837349,-0.23165613412857056
1782891400666648600,9.242648681640626,0.40840399265289307,-0.03905472531914711,-0.16632825136184692
1782891400676670700,9.252670654296875,0.41512608528137207,-0.11325358599424362,-0.10722685605287552
1782891400686692600,9.262692626953125,0.4164251685142517,-0.18200096487998962,-0.05447069928050041
1782891400696714800,9.27271484375,0.41725048422813416,-0.23404791951179504,-0.010373544879257679
1782891400706737000,9.28273681640625,0.41158169507980347,-0.2522178590297699,0.032514799386262894
1782891400716758800,9.2927587890625,0.40783753991127014,-0.23333339393138885,0.07975874096155167
1782891400726780700,9.30278076171875,0.41066768765449524,-0.16837063431739807,0.13665105402469635
1782891400736802800,9.312802734375,0.4274868965148926,-0.07789959013462067,0.1757289469242096
1782891400746824700,9.32282470703125,0.4446120858192444,0.003926298581063747,0.1878087818622589
1782891400756846600,9.3328466796875,0.46194660663604736,0.06179332733154297,0.167872354388237
1782891400766867700,9.34286767578125,0.4683014154434204,0.11906753480434418,0.14777880907058716
1782891400776889900,9.352889892578125,0.47267353534698486,0.18550221621990204,0.13482865691184998
1782891400786911700,9.362911865234375,0.4751678705215454,0.2507390081882477,0.12472329288721085
1782891400796933600,9.37293359375,0.4727177619934082,0.3128418028354645,0.09602746367454529
1782891400806955800,9.382955810546875,0.47725817561149597,0.3819452226161957,0.06287962943315506
1782891400816977700,9.392977783203126,0.4845927953720093,0.4423294961452484,0.03516517952084541
1782891400826999600,9.40299951171875,0.5000715851783752,0.4918839931488037,0.0312948040664196
1782891400837021700,9.413021728515625,0.5201811194419861,0.5284574627876282,0.05041443929076195
1782891400847043800,9.4230439453125,0.5464398860931396,0.5565426349639893,0.09737928211688995
1782891400857065700,9.433065673828125,0.6023101210594177,0.6097962260246277,0.17769010365009308
1782891400867087600,9.443087646484376,0.6892585754394531,0.7553462386131287,0.264988511800766
1782891400877109800,9.45310986328125,0.7863097786903381,1.001368761062622,0.28207749128341675
1782891400887131600,9.463131591796875,0.898167610168457,1.2793937921524048,0.17681418359279633
1782891400897153500,9.473153564453124,1.0045901536941528,1.5362175703048706,-0.0629131868481636
1782891400907174700,9.483174560546875,1.0800378322601318,1.797112226486206,-0.40035754442214966
1782891400917196800,9.49319677734375,1.118749976158142,1.9831033945083618,-0.8105618357658386
1782891400927218700,9.50321875,1.0934561491012573,2.0222060680389404,-1.19138503074646
1782891400937240600,9.513240478515625,0.992400586605072,1.894900918006897,-1.425917148590088
1782891400947262700,9.5232626953125,0.8507729172706604,1.5800992250442505,-1.4629672765731812
1782891400957284600,9.53328466796875,0.7396394610404968,1.1646897792816162,-1.3145421743392944
1782891400967306500,9.543306396484375,0.7430994510650635,0.6996073722839355,-0.9773257970809937
1782891400977329000,9.553328857421874,0.8551503419876099,0.2660796046257019,-0.49876266717910767
1782891400987350800,9.563350830078125,1.0501158237457275,-0.07282014191150665,0.06384050101041794
1782891400997372700,9.57337255859375,1.3030439615249634,-0.3120463192462921,0.6192153096199036
1782891401007394800,9.583394775390625,1.5824388265609741,-0.4685211479663849,1.0600651502609253
1782891401017416700,9.593416748046875,1.851119041442871,-0.5428755283355713,1.3464322090148926
1782891401027437600,9.6034375,2.0859577655792236,-0.522791862487793,1.4900745153427124
1782891401037459700,9.613459716796875,2.263047933578491,-0.38300463557243347,1.5190130472183228
1782891401047481900,9.62348193359375,2.383814811706543,-0.17260558903217316,1.4260846376419067
1782891401057503700,9.633503662109375,2.455019235610962,0.033179789781570435,1.2437760829925537
1782891401067525600,9.643525634765625,2.4634816646575928,0.22146181762218475,1.0234578847885132
1782891401077547800,9.6535478515625,2.422333240509033,0.3873642385005951,0.8141691088676453
1782891401087569700,9.663569580078125,2.339207172393799,0.521085798740387,0.6669164896011353
1782891401097591600,9.673591552734376,2.2171852588653564,0.6203290224075317,0.5776465535163879
1782891401107613700,9.68361376953125,2.0837647914886475,0.6894106268882751,0.5392552018165588
1782891401117635800,9.6936357421875,1.9585081338882446,0.7221763134002686,0.5383987426757812
1782891401127657700,9.70365771484375,1.8580763339996338,0.7226916551589966,0.5531539916992188
1782891401137680000,9.713679931640625,1.7673802375793457,0.6953316330909729,0.5696272253990173
1782891401147701800,9.72370166015625,1.6953656673431396,0.6470863819122314,0.5869321823120117
1782891401157722600,9.73372265625,1.637367844581604,0.586750864982605,0.6068425178527832
1782891401167744500,9.74374462890625,1.5858604907989502,0.5227726697921753,0.6209570169448853
1782891401177767000,9.753766845703124,1.5389952659606934,0.46074309945106506,0.6353886723518372
1782891401187788800,9.763788818359375,1.491132378578186,0.4122038185596466,0.6405203342437744
1782891401197810700,9.773810791015626,1.4510201215744019,0.379489004611969,0.6315255165100098
1782891401207832800,9.783832763671874,1.4154938459396362,0.35953792929649353,0.5891016125679016
1782891401217854700,9.793854736328125,1.3810585737228394,0.3370105028152466,0.5178862810134888
1782891401227876600,9.803876708984374,1.3565226793289185,0.27914267778396606,0.4273657202720642
1782891401237898500,9.8138984375,1.315941333770752,0.20354513823986053,0.32382333278656006
1782891401247920600,9.823920654296876,1.2675155401229858,0.10660526901483536,0.2100333869457245
1782891401257942800,9.83394287109375,1.2051512002944946,-0.0024138891603797674,0.09637287259101868
1782891401267964700,9.843964599609375,1.1283094882965088,-0.1133984625339508,-0.00046605319948866963
1782891401277986800,9.85398681640625,1.024466633796692,-0.2025562971830368,-0.07713233679533005
1782891401288007700,9.864007568359375,0.9070401787757874,-0.2542423903942108,-0.1304038166999817
1782891401298029600,9.874029541015625,0.7865316271781921,-0.24315619468688965,-0.13097718358039856
1782891401308051700,9.8840517578125,0.6682124137878418,-0.18528570234775543,-0.09067104756832123
1782891401318073900,9.894073974609375,0.5608689188957214,-0.12232058495283127,-0.02287362329661846
1782891401328095700,9.904095703125,0.471613347530365,-0.07809346914291382,0.051587559282779694
1782891401338117600,9.91411767578125,0.4123564064502716,-0.032700423151254654,0.13463982939720154
1782891401348139800,9.924139892578125,0.38614025712013245,0.019646938890218735,0.19975945353507996
1782891401358161700,9.93416162109375,0.38899463415145874,0.0871942937374115,0.22868244349956512
1782891401368183600,9.94418359375,0.3933030962944031,0.1646946668624878,0.20800380408763885
1782891401378205700,9.954205810546876,0.3762178421020508,0.2294454425573349,0.14258164167404175
1782891401388227600,9.9642275390625,0.33842357993125916,0.2676948308944702,0.049439989030361176
1782891401398249700,9.974249755859375,0.27728405594825745,0.2842860519886017,-0.036258406937122345
1782891401408272000,9.98427197265625,0.2056162804365158,0.2900882959365845,-0.09219517558813095
1782891401418293800,9.994293701171875,0.14078427851200104,0.2883199453353882,-0.09612839668989182
1782891401428314600,10.004314697265626,0.10099825263023376,0.3242795467376709,-0.038071487098932266
1782891401438336500,10.01433642578125,0.10424277931451797,0.4065464437007904,0.05541585385799408
1782891401448358700,10.024358642578125,0.11119123548269272,0.5128142833709717,0.1318778693675995
1782891401458381000,10.034381103515624,0.07701462507247925,0.6325724124908447,0.14435477554798126
1782891401468403000,10.04440283203125,0.002743322169408202,0.7749606966972351,0.0556560717523098
1782891401478424800,10.0544248046875,-0.10472001880407333,0.9401797652244568,-0.1445326805114746
1782891401488446700,10.06444677734375,-0.21807001531124115,1.0805137157440186,-0.43108826875686646
1782891401498468900,10.07446875,-0.36338087916374207,1.158551812171936,-0.7690975069999695
1782891401508490800,10.08449072265625,-0.5312995910644531,1.133747935295105,-1.065458059310913
1782891401518512600,10.0945126953125,-0.7057310342788696,1.0131583213806152,-1.2312365770339966
1782891401528534800,10.10453466796875,-0.8405511379241943,0.8209041953086853,-1.2513564825057983
1782891401538557000,10.114556884765625,-0.9071810245513916,0.5806575417518616,-1.1383655071258545
1782891401548577800,10.124577880859375,-0.896990180015564,0.3324229419231415,-0.8887737989425659
1782891401558599700,10.134599609375,-0.8192413449287415,0.15541382133960724,-0.5253719091415405
1782891401568621800,10.144621826171875,-0.6698678135871887,0.04562127962708473,-0.10753258317708969
1782891401578643700,10.154643798828126,-0.4971224367618561,0.0015936355339363217,0.29563379287719727
1782891401588665600,10.16466552734375,-0.3341601490974426,-0.0070981234312057495,0.6023406982421875
1782891401598688000,10.17468798828125,-0.2107817381620407,0.00430153775960207,0.7620400786399841
1782891401608710000,10.1847099609375,-0.12028966099023819,0.04547081142663956,0.7965964674949646
1782891401618731800,10.194731689453125,-0.05138995498418808,0.12025610357522964,0.7409838438034058
1782891401628754000,10.20475390625,-0.009265403263270855,0.20130355656147003,0.619259774684906
1782891401638775800,10.21477587890625,0.015847139060497284,0.2422959953546524,0.47153183817863464
1782891401648797700,10.224797607421875,0.008898952975869179,0.2236778289079666,0.3045308589935303
1782891401658819800,10.23481982421875,-0.041191112250089645,0.15013517439365387,0.14407888054847717
1782891401668841700,10.244841796875,-0.13324061036109924,0.024095483124256134,-0.0011587414192035794
1782891401678862800,10.25486279296875,-0.26524844765663147,-0.15610891580581665,-0.1218651831150055
1782891401688884700,10.264884765625,-0.4185514450073242,-0.3429613411426544,-0.19948221743106842
1782891401698907000,10.274906982421875,-0.5665385127067566,-0.49479880928993225,-0.21856403350830078
1782891401708928800,10.2849287109375,-0.6785444021224976,-0.5962514281272888,-0.19274282455444336
1782891401718950700,10.29495068359375,-0.752034604549408,-0.6495372653007507,-0.13960956037044525
1782891401728972800,10.304972900390625,-0.7924675345420837,-0.6586647033691406,-0.07837523519992828
1782891401738995000,10.314994873046874,-0.8201375007629395,-0.6379788517951965,-0.022884011268615723
1782891401749016800,10.325016845703125,-0.8342450857162476,-0.5817901492118835,0.0037670412566512823
1782891401759039000,10.3350390625,-0.8308146595954895,-0.5146207213401794,0.010609501041471958
1782891401769060900,10.345060791015625,-0.8091298341751099,-0.42512068152427673,0.004571582190692425
1782891401779082800,10.355082763671875,-0.7766091823577881,-0.30079206824302673,-0.006237922236323357
1782891401789105000,10.36510498046875,-0.7404146790504456,-0.1618213951587677,-0.018972625955939293
1782891401799126800,10.375126708984375,-0.7132816314697266,-0.036445360630750656,-0.049786731600761414
1782891401809148700,10.385148681640626,-0.6905118823051453,0.06862246990203857,-0.0921512320637703
1782891401819169800,10.395169677734375,-0.6761094927787781,0.14235767722129822,-0.13894110918045044
1782891401829192000,10.40519189453125,-0.6745696663856506,0.17693988978862762,-0.19944199919700623
1782891401839213800,10.4152138671875,-0.6773505210876465,0.1506108194589615,-0.2614630162715912
1782891401849235700,10.425235595703125,-0.695323646068573,0.07549582421779633,-0.31725358963012695
1782891401859257900,10.4352578125,-0.7177967429161072,-0.026023611426353455,-0.34578937292099
1782891401869279700,10.44527978515625,-0.737389862537384,-0.13599830865859985,-0.3519633710384369
1782891401879302000,10.455302001953125,-0.7408027052879333,-0.2268027812242508,-0.32653072476387024
1782891401889323800,10.46532373046875,-0.723869800567627,-0.26641544699668884,-0.2723308503627777
1782891401899346000,10.475345947265625,-0.6895344853401184,-0.25360405445098877,-0.22260244190692902
1782891401909367800,10.485367919921876,-0.6463438868522644,-0.19437134265899658,-0.2072937935590744
1782891401919389700,10.4953896484375,-0.5978748798370361,-0.11574736982584,-0.23398666083812714
1782891401929411800,10.505411865234375,-0.557695209980011,-0.014074539765715599,-0.29028189182281494
1782891401939433700,10.515433837890624,-0.51996248960495,0.10548807680606842,-0.3790042996406555
1782891401949454800,10.525454833984375,-0.4718117415904999,0.21541723608970642,-0.4719720482826233
1782891401959476700,10.535476806640625,-0.43136337399482727,0.30995920300483704,-0.5723516345024109
1782891401969499000,10.545498779296874,-0.38984018564224243,0.3519745469093323,-0.654897928237915
1782891401979520800,10.555520751953125,-0.3624522387981415,0.3222627341747284,-0.6872577667236328
1782891401989542700,10.565542724609376,-0.36587491631507874,0.17649993300437927,-0.6318528056144714
1782891401999564800,10.575564697265625,-0.411877304315567,-0.07256927341222763,-0.4637130796909332
1782891402009586700,10.585586669921875,-0.45272353291511536,-0.3755752146244049,-0.14460591971874237
1782891402019608800,10.59560888671875,-0.44216570258140564,-0.6355090737342834,0.3028019368648529
1782891402029631000,10.605630859375,-0.3629624843597412,-0.7633370757102966,0.8266749978065491
1782891402039652900,10.61565283203125,-0.24860768020153046,-0.7577574849128723,1.297676682472229
1782891402049674800,10.6256748046875,-0.13221769034862518,-0.7168862223625183,1.5686942338943481
1782891402059697000,10.63569677734375,-0.04536295309662819,-0.6712265610694885,1.5850045680999756
1782891402069718800,10.64571875,0.019121229648590088,-0.724688708782196,1.3393186330795288
1782891402079740000,10.655739990234375,0.036069322377443314,-0.918872058391571,0.8908984661102295
1782891402089761800,10.66576171875,-0.02219398505985737,-1.1557759046554565,0.4036127030849457
1782891402099784000,10.675783935546875,-0.16455459594726562,-1.2998806238174438,0.031436484307050705
1782891402109805800,10.685805908203125,-0.3436042368412018,-1.3922315835952759,-0.17574332654476166
1782891402119827700,10.69582763671875,-0.5009656548500061,-1.4540337324142456,-0.21581138670444489
1782891402129849900,10.705849853515625,-0.6003007292747498,-1.4773215055465698,-0.10429977625608444
1782891402139871700,10.715871826171876,-0.6151979565620422,-1.481777548789978,0.10620313137769699
1782891402149894000,10.725893798828125,-0.5678727626800537,-1.2982298135757446,0.425365686416626
1782891402159916000,10.735916015625,-0.4658462703227997,-0.8903653025627136,0.7881361246109009
1782891402169938000,10.74593798828125,-0.31175655126571655,-0.3505454957485199,1.1054280996322632
1782891402179959800,10.755959716796875,-0.10942129790782928,0.187148317694664,1.2857062816619873
1782891402189982000,10.76598193359375,0.10798905044794083,0.6139332056045532,1.2785279750823975
1782891402200003800,10.77600390625,0.30380943417549133,0.8923829197883606,1.1193742752075195
1782891402210025000,10.78602490234375,0.42503678798675537,0.9807596802711487,0.8432124257087708
1782891402220046800,10.796046875,0.43163609504699707,0.866121768951416,0.49547526240348816
1782891402230069000,10.806069091796875,0.3168586492538452,0.625539243221283,0.1407667100429535
1782891402240091000,10.8160908203125,0.09681735932826996,0.3360632359981537,-0.1489758938550949
1782891402250112800,10.82611279296875,-0.19766195118427277,0.05612798407673836,-0.3615073263645172
1782891402260135000,10.836135009765625,-0.4998534917831421,-0.23918995261192322,-0.5038458108901978
1782891402270156800,10.84615673828125,-0.8004410266876221,-0.5473642945289612,-0.5747186541557312
1782891402280178700,10.8561787109375,-1.1148977279663086,-0.9237658977508545,-0.6376598477363586
1782891402290200800,10.866200927734376,-1.4187194108963013,-1.2958544492721558,-0.6948570609092712
1782891402300223000,10.876222900390625,-1.6807621717453003,-1.5133335590362549,-0.7078160047531128
1782891402310244900,10.886244873046875,-1.8288384675979614,-1.3551028966903687,-0.5583535432815552
1782891402320266800,10.896266845703124,-2.0283193588256836,-1.1181598901748657,-0.4193754196166992
1782891402330289000,10.906288818359375,-2.2562131881713867,-1.1224459409713745,-0.384343683719635
1782891402340309800,10.916309814453125,-2.4075565338134766,-1.2662204504013062,-0.4381712079048157
1782891402350332000,10.926331787109374,-2.474499225616455,-1.3896329402923584,-0.5058138966560364
1782891402360354000,10.93635400390625,-2.5319814682006836,-1.3063825368881226,-0.5703827738761902
1782891402370376000,10.9463759765625,-2.585634469985962,-1.1921603679656982,-0.5610838532447815
1782891402380397800,10.956397705078125,-2.5493273735046387,-1.166552186012268,-0.4670760929584503
1782891402390419700,10.966419677734375,-2.41786789894104,-1.1029385328292847,-0.34308040142059326
1782891402400441900,10.97644189453125,-2.2533910274505615,-0.8669366836547852,-0.1999834179878235
1782891402410463700,10.986463623046875,-2.082172155380249,-0.517337441444397,-0.05554874613881111
1782891402420485600,10.996485595703126,-1.946969985961914,-0.21909932792186737,0.08304561674594879
1782891402430507800,11.0065078125,-1.929208517074585,0.06513772159814835,0.25838202238082886
1782891402440530000,11.016530029296876,-1.982553482055664,0.4211618900299072,0.4562873840332031
1782891402450552300,11.02655224609375,-2.0631484985351562,0.9333820343017578,0.6257627010345459
1782891402460574200,11.03657421875,-2.123208999633789,1.4652512073516846,0.7286291718482971
1782891402470595000,11.046594970703126,-2.00930118560791,2.203812837600708,0.7644910216331482
1782891402480617200,11.0566171875,-1.7985128164291382,3.081061363220215,0.7168222665786743
1782891402490639000,11.06663916015625,-1.6334147453308105,2.7288217544555664,0.5024804472923279
1782891402500661200,11.0766611328125,-1.4938908815383911,1.1971689462661743,0.07022755593061447
1782891402510683400,11.086683349609375,-1.2484720945358276,0.2174558937549591,-0.18096286058425903
1782891402520705300,11.096705322265626,-1.0670154094696045,0.24131114780902863,-0.21058332920074463
1782891402530727200,11.10672705078125,-1.026168942451477,0.5515691637992859,-0.18007150292396545
1782891402540749300,11.116749267578125,-1.0226024389266968,0.8469038605690002,-0.12049445509910583
1782891402550771200,11.126771240234374,-0.9421462416648865,1.1455144882202148,0.024698687717318535
1782891402560793000,11.13679296875,-0.7910704016685486,1.2720074653625488,0.19354230165481567
1782891402570815000,11.14681494140625,-0.6616642475128174,1.1287882328033447,0.3195771872997284
1782891402580837400,11.15683740234375,-0.5112443566322327,0.9248335361480713,0.41441503167152405
1782891402590859300,11.166859375,-0.44899219274520874,0.8233295679092407,0.4812428057193756
1782891402600880000,11.176880126953124,-0.425067663192749,0.7747274041175842,0.518997073173523
1782891402610902300,11.18690234375,-0.4235999882221222,0.7683610916137695,0.525256872177124
1782891402620924200,11.196924072265626,-0.465005487203598,0.7429023385047913,0.4765159487724304
1782891402630946000,11.206946044921875,-0.5555351376533508,0.6298972368240356,0.3495502769947052
1782891402640968200,11.21696826171875,-0.7129106521606445,0.39987683296203613,0.1383533477783203
1782891402650990300,11.226990234375,-0.872323751449585,0.09841205924749374,-0.10030316561460495
1782891402661012200,11.23701220703125,-1.0008395910263062,-0.2398615926504135,-0.3249160349369049
1782891402671034000,11.2470341796875,-1.0880738496780396,-0.48343536257743835,-0.5156175494194031
1782891402681056300,11.25705615234375,-1.1261872053146362,-0.5898177623748779,-0.6435081362724304
1782891402691078100,11.267078125,-1.0969281196594238,-0.5856158137321472,-0.7046471238136292
1782891402701100000,11.27710009765625,-1.0180026292800903,-0.47441285848617554,-0.6885906457901001
1782891402711122200,11.2871220703125,-0.9139923453330994,-0.2820756435394287,-0.5913373231887817
1782891402721144300,11.297144287109376,-0.8113703727722168,-0.08036727458238602,-0.43693551421165466
1782891402731165200,11.307165283203124,-0.7359813451766968,0.039862193167209625,-0.2898363471031189
1782891402741187000,11.31718701171875,-0.6834198832511902,0.05999702587723732,-0.15480342507362366
1782891402751209200,11.327209228515626,-0.6604519486427307,0.07128137350082397,0.008383630774915218
1782891402761231000,11.337231201171875,-0.7053377032279968,0.052200086414813995,0.164022758603096
1782891402771253000,11.3472529296875,-0.8045452237129211,-0.05279077589511871,0.25911518931388855
1782891402781275400,11.357275390625,-0.9080577492713928,-0.19389782845973969,0.3304245173931122
1782891402791297300,11.36729736328125,-1.0009056329727173,-0.35205256938934326,0.38052549958229065
1782891402801319200,11.377319091796876,-1.0841203927993774,-0.525413990020752,0.4127225875854492
1782891402811341300,11.38734130859375,-1.147804856300354,-0.675147294998169,0.4316922724246979
1782891402821363200,11.39736328125,-1.1847114562988281,-0.7637125849723816,0.4205589294433594
1782891402831385000,11.407385009765624,-1.203252911567688,-0.755096435546875,0.3994472622871399
1782891402841407200,11.4174072265625,-1.2641026973724365,-0.6842364072799683,0.4867155849933624
1782891402851429000,11.42742919921875,-1.3232016563415527,-0.7118184566497803,0.6175234317779541
1782891402861450200,11.4374501953125,-1.3503755331039429,-0.7496423125267029,0.7387624979019165
1782891402871472000,11.44747216796875,-1.339693546295166,-0.7744683027267456,0.8154221177101135
1782891402881494300,11.457494384765624,-1.3021928071975708,-0.7470555901527405,0.829277753829956
1782891402891516200,11.46751611328125,-1.2630482912063599,-0.651617705821991,0.7695574164390564
1782891402901538000,11.4775380859375,-1.2183597087860107,-0.5508748888969421,0.6804317831993103
1782891402911560200,11.487560302734375,-1.1690528392791748,-0.5073769092559814,0.568888247013092
1782891402921582300,11.497582275390625,-1.0930737257003784,-0.5542400479316711,0.42464715242385864
1782891402931604200,11.507604248046874,-0.9773939847946167,-0.6369860768318176,0.27113935351371765
1782891402941626400,11.51762646484375,-0.8480879068374634,-0.720271110534668,0.13642814755439758
1782891402951648300,11.527648193359376,-0.7740626931190491,-0.7824394106864929,0.050459444522857666
1782891402961670100,11.537670166015625,-0.7296432852745056,-0.7800489068031311,0.02600177377462387
1782891402971692000,11.547692138671875,-0.6964893341064453,-0.7774193286895752,0.01471795979887247
