time,seconds_elapsed,z,y,x
1782891391496584400,0.07258447265625,0.9574287533760071,1.2523953914642334,-0.12591134011745453
1782891391506606300,0.0826064453125,0.9870811700820923,1.4162462949752808,-0.24502654373645782
1782891391516628200,0.092628173828125,0.9897956252098083,1.4744120836257935,-0.4068702161312103
1782891391526650400,0.102650390625,0.9460234045982361,1.4826258420944214,-0.6024317145347595
1782891391536672300,0.11267236328125,0.8832888007164001,1.4492783546447754,-0.7974461317062378
1782891391546694400,0.1226943359375,0.7832857370376587,1.4879157543182373,-0.9637051224708557
1782891391556716500,0.132716552734375,0.6548715829849243,1.5638818740844727,-1.1022286415100098
1782891391566738400,0.142738525390625,0.5316029191017151,1.6344109773635864,-1.2309207916259766
1782891391576760300,0.15276025390625,0.4416080117225647,1.7553308010101318,-1.342672348022461
1782891391586781200,0.16278125,0.39349719882011414,1.9216228723526,-1.4218255281448364
1782891391596803300,0.17280322265625,0.4055482745170593,2.1063499450683594,-1.4952608346939087
1782891391606825500,0.182825439453125,0.47218057513237,2.27518630027771,-1.5585122108459473
1782891391616847400,0.192847412109375,0.6032080054283142,2.367164373397827,-1.6067496538162231
1782891391626869500,0.202869384765625,0.7668981552124023,2.418266773223877,-1.6643391847610474
1782891391636891400,0.212891357421875,0.9404846429824829,2.3964762687683105,-1.7099262475967407
1782891391646913300,0.222913330078125,1.083086609840393,2.2897281646728516,-1.7408567667007446
1782891391656935400,0.232935302734375,1.1790180206298828,2.1206119060516357,-1.7513573169708252
1782891391666957300,0.242957275390625,1.2292450666427612,1.879686951637268,-1.7508827447891235
1782891391676979200,0.252979248046875,1.2572648525238037,1.5536373853683472,-1.7221537828445435
1782891391687001300,0.26300146484375,1.288552165031433,1.2836482524871826,-1.634230613708496
1782891391697023500,0.2730234375,1.369594931602478,1.1276007890701294,-1.463727593421936
1782891391707045400,0.28304541015625,1.5266047716140747,1.0010076761245728,-1.2197407484054565
1782891391717067500,0.293067626953125,1.7461732625961304,0.8224601745605469,-0.9379976391792297
1782891391727089400,0.30308935546875,1.9714500904083252,0.6093939542770386,-0.646207869052887
1782891391737110300,0.3131103515625,2.164520263671875,0.41378453373908997,-0.3594406545162201
1782891391747132400,0.32313232421875,2.3098556995391846,0.2717269957065582,-0.06124971807003021
1782891391757154600,0.333154541015625,2.390965700149536,0.15731017291545868,0.2148241549730301
1782891391767176400,0.343176513671875,2.4135968685150146,0.04672054573893547,0.45424339175224304
1782891391777198300,0.3531982421875,2.3763060569763184,-0.09473404288291931,0.6287679076194763
1782891391787220500,0.363220458984375,2.2903027534484863,-0.2769829332828522,0.7242200970649719
1782891391797242400,0.373242431640625,2.1708807945251465,-0.41876769065856934,0.781140148639679
1782891391807264300,0.38326416015625,2.0303802490234375,-0.4881957769393921,0.8459939956665039
1782891391817286100,0.3932861328125,1.8844000101089478,-0.49286288022994995,0.9017888903617859
1782891391827308500,0.40330859375,1.749305009841919,-0.48539164662361145,0.9331430792808533
1782891391837330400,0.413330322265625,1.6240577697753906,-0.47398248314857483,0.9262874126434326
1782891391847352300,0.423352294921875,1.5191454887390137,-0.4449431002140045,0.8902692198753357
1782891391857374500,0.43337451171875,1.4260441064834595,-0.33637601137161255,0.8440418243408203
1782891391867396400,0.443396240234375,1.356507658958435,-0.16440318524837494,0.7861894369125366
1782891391877418200,0.453418212890625,1.3143116235733032,0.044613584876060486,0.7350347638130188
1782891391887439400,0.463439453125,1.298864483833313,0.24373841285705566,0.6872877478599548
1782891391897461500,0.47346142578125,1.289902687072754,0.3860817849636078,0.6451762318611145
1782891391907483400,0.4834833984375,1.2803642749786377,0.45314204692840576,0.615402340888977
1782891391917505300,0.49350537109375,1.252570629119873,0.45462146401405334,0.5843436121940613
1782891391927527400,0.50352734375,1.2155026197433472,0.38961076736450195,0.5619658827781677
1782891391937549300,0.51354931640625,1.1582733392715454,0.3395107388496399,0.5578098297119141
1782891391947571200,0.5235712890625,1.0850611925125122,0.28312575817108154,0.5629515647888184
1782891391957593300,0.53359326171875,1.001473069190979,0.22223138809204102,0.5595266819000244
1782891391967615500,0.543615478515625,0.918600857257843,0.15741164982318878,0.556718647480011
1782891391977637400,0.553637451171875,0.8415483832359314,0.10676169395446777,0.5501766204833984
1782891391987659500,0.563659423828125,0.7607678174972534,0.07483625411987305,0.5319331884384155
1782891391997681400,0.573681396484375,0.6608490347862244,0.07754645496606827,0.4807588756084442
1782891392007703300,0.583703369140625,0.5428696870803833,0.1476573795080185,0.386035293340683
1782891392017725400,0.593725341796875,0.4055599570274353,0.25386252999305725,0.19917835295200348
1782891392027747300,0.603747314453125,0.25641176104545593,0.341111421585083,-0.05794612690806389
1782891392037769200,0.613769287109375,0.09843737632036209,0.47414660453796387,-0.37128761410713196
1782891392047790300,0.623790283203125,-0.03178161382675171,0.48947229981422424,-0.6856353878974915
1782891392057812500,0.6338125,-0.12235305458307266,0.35994812846183777,-0.943509578704834
1782891392067834400,0.64383447265625,-0.20411564409732819,0.19534224271774292,-1.1376358270645142
1782891392077856300,0.653856201171875,-0.3041776418685913,0.058492694050073624,-1.2988134622573853
1782891392087878400,0.66387841796875,-0.4153907001018524,-0.1304742991924286,-1.4046496152877808
1782891392097900300,0.673900390625,-0.5242122411727905,-0.32334649562835693,-1.442811131477356
1782891392107922400,0.68392236328125,-0.6127530336380005,-0.3869297206401825,-1.4067245721817017
1782891392117944600,0.693944580078125,-0.689552366733551,-0.3140277564525604,-1.3178516626358032
1782891392127966500,0.703966552734375,-0.741938591003418,-0.30719059705734253,-1.1792876720428467
1782891392137988400,0.71398828125,-0.8007182478904724,-0.2413531392812729,-1.0205340385437012
1782891392148010200,0.72401025390625,-0.8884826898574829,-0.23408164083957672,-0.8741366267204285
1782891392158032400,0.734032470703125,-0.953911304473877,-0.30639421939849854,-0.743213951587677
1782891392168054300,0.74405419921875,-0.9737276434898376,-0.45941224694252014,-0.6199455857276917
1782891392178076200,0.754076171875,-0.978916585445404,-0.6467105746269226,-0.5090978741645813
1782891392188098300,0.764098388671875,-0.959646999835968,-0.776308000087738,-0.37955182790756226
1782891392198119400,0.774119384765625,-0.9103236794471741,-0.8504951596260071,-0.2388674020767212
1782891392208141300,0.784141357421875,-0.8303289413452148,-0.87814861536026,-0.08662912994623184
1782891392218163200,0.7941630859375,-0.7368806600570679,-0.8314641714096069,0.07073192298412323
1782891392228185300,0.804185302734375,-0.6431315541267395,-0.7088277339935303,0.23190802335739136
1782891392238207200,0.814207275390625,-0.5602102279663086,-0.5226668119430542,0.40207645297050476
1782891392248229400,0.8242294921875,-0.4911808371543884,-0.28509286046028137,0.5597995519638062
1782891392258251500,0.83425146484375,-0.4274069368839264,0.003827362321317196,0.6963147521018982
1782891392268273400,0.8442734375,-0.3404270112514496,0.32054033875465393,0.7867341637611389
1782891392278295300,0.85429541015625,-0.24383674561977386,0.5984169840812683,0.8084359169006348
1782891392288317400,0.8643173828125,-0.14841434359550476,0.8181282877922058,0.7411700487136841
1782891392298339300,0.87433935546875,-0.055911920964717865,0.9320074319839478,0.5933519005775452
1782891392308361200,0.884361328125,-0.009960412047803402,0.8691280484199524,0.3617679178714752
1782891392318383400,0.89438330078125,-0.006036114878952503,0.6131402850151062,0.10421855002641678
1782891392328405500,0.904405517578125,-0.07686661183834076,0.24005752801895142,-0.13290558755397797
1782891392338427400,0.914427490234375,-0.2245078980922699,-0.15304222702980042,-0.29835402965545654
1782891392348449500,0.924449462890625,-0.4159567058086395,-0.5309432148933411,-0.3831093907356262
1782891392358470400,0.934470458984375,-0.599259614944458,-0.822891354560852,-0.3877350986003876
1782891392368492300,0.9444921875,-0.7437821626663208,-1.0078535079956055,-0.31068745255470276
1782891392378514200,0.95451416015625,-0.8620083928108215,-1.0823925733566284,-0.169327974319458
1782891392388536600,0.96453662109375,-0.947669506072998,-1.0090663433074951,0.016723129898309708
1782891392398558500,0.974558349609375,-0.9752229452133179,-0.7479904890060425,0.2516563832759857
1782891392408580400,0.984580322265625,-0.9260159730911255,-0.338714063167572,0.4910244941711426
1782891392418602500,0.9946025390625,-0.8037861585617065,0.10866789519786835,0.6734651327133179
1782891392428624400,1.004624267578125,-0.6242172122001648,0.4778379201889038,0.745566725730896
1782891392438645500,1.0146455078125,-0.44707155227661133,0.7351246476173401,0.6794567704200745
1782891392448667600,1.024667724609375,-0.2975499927997589,0.850045919418335,0.49536123871803284
1782891392458689800,1.034689697265625,-0.19509650766849518,0.8163862824440002,0.23591764271259308
1782891392468711700,1.044711669921875,-0.15160894393920898,0.6511368751525879,-0.056846316903829575
1782891392478733600,1.054733642578125,-0.16874530911445618,0.3968263268470764,-0.3358212411403656
1782891392488755500,1.06475537109375,-0.23246650397777557,0.0975932776927948,-0.5428934693336487
1782891392498777600,1.074777587890625,-0.31644171476364136,-0.19917505979537964,-0.6462064385414124
1782891392508798700,1.084798828125,-0.3922283351421356,-0.42969855666160583,-0.6342991590499878
1782891392518820600,1.094820556640625,-0.4596690237522125,-0.5788313746452332,-0.5229458212852478
1782891392528842800,1.1048427734375,-0.5171884894371033,-0.6566566824913025,-0.34812211990356445
1782891392538864600,1.11486474609375,-0.5391046404838562,-0.6815857291221619,-0.15571042895317078
1782891392548886500,1.124886474609375,-0.536281943321228,-0.6252497434616089,0.011488420888781548
1782891392558908400,1.134908447265625,-0.5287801623344421,-0.5151460766792297,0.10425762087106705
1782891392568930600,1.1449306640625,-0.5222969651222229,-0.3634580373764038,0.11603251844644547
1782891392578952400,1.154952392578125,-0.5016483664512634,-0.21960851550102234,0.060699936002492905
1782891392588974600,1.164974609375,-0.4580859839916229,-0.1075642853975296,-0.0527520552277565
1782891392598996700,1.174996826171875,-0.4013616442680359,-0.0458054356276989,-0.1959547996520996
1782891392609018600,1.1850185546875,-0.33884793519973755,0.013783592730760574,-0.32460838556289673
1782891392619040500,1.19504052734375,-0.2668082118034363,0.08590354025363922,-0.40718674659729004
1782891392629062700,1.205062744140625,-0.2058844417333603,0.19183796644210815,-0.45295825600624084
1782891392639084500,1.21508447265625,-0.14966855943202972,0.341901034116745,-0.4846762418746948
1782891392649106400,1.2251064453125,-0.10552079975605011,0.4934045076370239,-0.5333641767501831
1782891392659127600,1.23512744140625,-0.09382228553295135,0.5617105960845947,-0.6266911625862122
1782891392669149700,1.245149658203125,-0.13325677812099457,0.5337322354316711,-0.7224059700965881
1782891392679171600,1.255171630859375,-0.2341918647289276,0.4413518011569977,-0.781048059463501
1782891392689193500,1.265193359375,-0.3846985697746277,0.28416216373443604,-0.7806166410446167
1782891392699215600,1.275215576171875,-0.5624634623527527,0.09517040848731995,-0.7196824550628662
1782891392709237500,1.285237548828125,-0.7193393707275391,-0.1272200495004654,-0.6213966608047485
1782891392719259400,1.29525927734375,-0.8419588208198547,-0.2947297692298889,-0.5181788206100464
1782891392729281500,1.305281494140625,-0.9407996535301208,-0.35815081000328064,-0.4090624749660492
1782891392739303700,1.3153037109375,-0.9702078700065613,-0.4322667717933655,-0.3191528022289276
1782891392749325600,1.32532568359375,-0.9517859816551208,-0.40007874369621277,-0.2353905439376831
1782891392759347700,1.33534765625,-0.9218043088912964,-0.2675887644290924,-0.17871031165122986
1782891392769369600,1.34536962890625,-0.9016324877738953,-0.13354970514774323,-0.17382794618606567
1782891392779391500,1.3553916015625,-0.889844536781311,-0.08042683452367783,-0.22854791581630707
1782891392789413600,1.36541357421875,-0.8896743655204773,-0.13273876905441284,-0.32915201783180237
1782891392799435500,1.375435546875,-0.9155837297439575,-0.2138330489397049,-0.4219362735748291
1782891392809456600,1.38545654296875,-0.9543105959892273,-0.2665015757083893,-0.47517257928848267
1782891392819478500,1.395478515625,-0.987472414970398,-0.3019276261329651,-0.49765917658805847
1782891392829500700,1.405500732421875,-1.002643346786499,-0.3568204343318939,-0.4871564507484436
1782891392839522600,1.4155224609375,-1.0113643407821655,-0.41993311047554016,-0.4534827768802643
1782891392849544400,1.42554443359375,-1.0158435106277466,-0.4870559573173523,-0.41495481133461
1782891392859566600,1.435566650390625,-1.0135918855667114,-0.5385246276855469,-0.36720094084739685
1782891392869588700,1.445588623046875,-1.0038995742797852,-0.5580381751060486,-0.30730485916137695
1782891392879610600,1.455610595703125,-0.9876908659934998,-0.5353323817253113,-0.22846190631389618
1782891392889632500,1.465632568359375,-0.9601855278015137,-0.4701869487762451,-0.12292348593473434
1782891392899654700,1.475654541015625,-0.9305728673934937,-0.3921256363391876,-0.017821969464421272
1782891392909676500,1.485676513671875,-0.90828537940979,-0.3110787272453308,0.07152096182107925
1782891392919698400,1.495698486328125,-0.8934390544891357,-0.22791509330272675,0.13444846868515015
1782891392929720600,1.505720458984375,-0.8765578269958496,-0.12753789126873016,0.17685158550739288
1782891392939742500,1.515742431640625,-0.8413634300231934,-0.013364090584218502,0.19363383948802948
1782891392949764600,1.5257646484375,-0.8038620948791504,0.05752339959144592,0.17767538130283356
1782891392959785500,1.535785400390625,-0.7901150584220886,0.02142011746764183,0.11285881698131561
1782891392969807600,1.5458076171875,-0.8258973360061646,-0.082181915640831,0.01913737878203392
1782891392979829500,1.55582958984375,-0.8809996843338013,-0.1721295565366745,-0.052896905690431595
1782891392989851400,1.565851318359375,-0.9248574376106262,-0.18969017267227173,-0.10276459902524948
1782891392999873500,1.57587353515625,-0.9417919516563416,-0.16207611560821533,-0.14821171760559082
1782891393009895700,1.585895751953125,-0.9334346652030945,-0.12369278073310852,-0.217350572347641
1782891393019917600,1.59591748046875,-0.8847166299819946,-0.13669605553150177,-0.32618841528892517
1782891393029939700,1.605939697265625,-0.8210921287536621,-0.19195663928985596,-0.47553661465644836
1782891393039961600,1.615961669921875,-0.7762802839279175,-0.21229086816310883,-0.6392948031425476
1782891393049983500,1.6259833984375,-0.704975962638855,-0.28872358798980713,-0.8001963496208191
1782891393060005600,1.636005615234375,-0.6094720363616943,-0.36944225430488586,-0.9399205446243286
1782891393070027500,1.646027587890625,-0.5046976804733276,-0.41303128004074097,-1.033660650253296
1782891393080049400,1.65604931640625,-0.41504529118537903,-0.42573419213294983,-1.0753155946731567
1782891393090071600,1.666071533203125,-0.3447650074958801,-0.41694948077201843,-1.051849126815796
1782891393100093700,1.67609375,-0.28793978691101074,-0.37707945704460144,-0.9662863612174988
1782891393110114600,1.686114501953125,-0.2466312199831009,-0.3031509220600128,-0.8321335911750793
1782891393120136400,1.696136474609375,-0.19578857719898224,-0.2248671054840088,-0.6709281802177429
1782891393130158600,1.70615869140625,-0.12630590796470642,-0.12742550671100616,-0.49593400955200195
1782891393140180500,1.716180419921875,-0.07519753277301788,0.03742336109280586,-0.29002177715301514
1782891393150202600,1.72620263671875,-0.05716659873723984,0.18796493113040924,-0.14212021231651306
1782891393160224800,1.736224853515625,-0.015141388401389122,0.23976005613803864,-0.06313563883304596
1782891393170246700,1.74624658203125,0.04067181050777435,0.27148306369781494,-0.03413567319512367
1782891393180268500,1.7562685546875,0.10576927661895752,0.3298863470554352,-0.033313240855932236
1782891393190290700,1.766290771484375,0.16735273599624634,0.3858151137828827,-0.04637737572193146
1782891393200312600,1.7763125,0.23215319216251373,0.4061771333217621,-0.0658489540219307
1782891393210334500,1.78633447265625,0.28642281889915466,0.3790839910507202,-0.07168208062648773
1782891393220356400,1.7963564453125,0.3198637366294861,0.28682243824005127,-0.04334831237792969
1782891393230378800,1.806378662109375,0.35664358735084534,0.16212153434753418,-0.011098231188952923
1782891393240400600,1.816400634765625,0.3954162895679474,0.04448650777339935,0.0950191468000412
1782891393250422500,1.826422607421875,0.4587553143501282,-0.09155255556106567,0.24460092186927795
1782891393260443600,1.836443603515625,0.4920431673526764,-0.14010703563690186,0.42053499817848206
1782891393270465500,1.846465576171875,0.48865267634391785,-0.12187530845403671,0.6003388166427612
1782891393280487400,1.8564873046875,0.4793890416622162,-0.13579009473323822,0.7303547263145447
1782891393290509600,1.866509521484375,0.48625707626342773,-0.22156384587287903,0.7922891974449158
1782891393300531700,1.87653173828125,0.4968165457248688,-0.3248651623725891,0.7825323939323425
1782891393310553600,1.8865537109375,0.5042632818222046,-0.4104495942592621,0.7222642302513123
1782891393320575500,1.896575439453125,0.49623069167137146,-0.49191367626190186,0.6269803643226624
1782891393330597600,1.90659765625,0.47684553265571594,-0.5770703554153442,0.5249650478363037
1782891393340619500,1.91661962890625,0.43599680066108704,-0.6699596047401428,0.43670395016670227
1782891393350641400,1.926641357421875,0.37930530309677124,-0.7604895234107971,0.3810494840145111
1782891393360663600,1.93666357421875,0.3101422190666199,-0.831145167350769,0.35443252325057983
1782891393370685700,1.946685791015625,0.23271825909614563,-0.8793643116950989,0.3548056483268738
1782891393380707600,1.95670751953125,0.14810863137245178,-0.9114565849304199,0.3773239552974701
1782891393390729700,1.966729736328125,0.03476822003722191,-0.9481123089790344,0.405908465385437
1782891393400750600,1.97675048828125,-0.09282849729061127,-0.995248019695282,0.43232235312461853
1782891393410772500,1.9867724609375,-0.23300930857658386,-1.026241660118103,0.44895699620246887
1782891393420794400,1.99679443359375,-0.3676147758960724,-1.026396632194519,0.4554330110549927
1782891393430816800,2.006816650390625,-0.4897090196609497,-0.9676757454872131,0.46067118644714355
1782891393440839000,2.0168388671875,-0.5827889442443848,-0.8452399969100952,0.4826689660549164
1782891393450860800,2.02686083984375,-0.6439404487609863,-0.6898149847984314,0.5095943808555603
1782891393460882700,2.036882568359375,-0.6652501225471497,-0.5152401924133301,0.562511146068573
1782891393470904800,2.04690478515625,-0.6473608613014221,-0.3028853237628937,0.6250147819519043
1782891393480926700,2.0569267578125,-0.5718201398849487,-0.06772511452436447,0.7046263217926025
1782891393490948600,2.066948486328125,-0.44600710272789,0.22091494500637054,0.7939250469207764
1782891393500970800,2.076970703125,-0.2620689868927002,0.5977909564971924,0.8809062838554382
1782891393510992600,2.08699267578125,-0.04854019731283188,1.0445261001586914,0.9338334202766418
1782891393521014800,2.097014892578125,0.15011776983737946,1.485618233680725,0.9174496531486511
1782891393531037000,2.107036865234375,0.31289950013160706,1.8422632217407227,0.8057242035865784
1782891393541058800,2.117058837890625,0.44661974906921387,2.0703415870666504,0.589586079120636
1782891393551079700,2.12707958984375,0.5608326196670532,2.1024065017700195,0.3014461398124695
1782891393561101600,2.1371015625,0.6522300839424133,1.9371951818466187,-0.003834090894088149
1782891393571123700,2.147123779296875,0.6807600259780884,1.6347665786743164,-0.27730610966682434
1782891393581145900,2.157145751953125,0.5963624715805054,1.2451012134552002,-0.4766094386577606
1782891393591167700,2.167167724609375,0.3872893750667572,0.8405844569206238,-0.5961353182792664
1782891393601190000,2.17718994140625,0.07111558318138123,0.4514634907245636,-0.670016348361969
1782891393611211800,2.187211669921875,-0.26935943961143494,0.0772520899772644,-0.683163583278656
1782891393621233700,2.197233642578125,-0.554271936416626,-0.20888471603393555,-0.6044548153877258
1782891393631255600,2.207255615234375,-0.7316059470176697,-0.37255701422691345,-0.44589874148368835
1782891393641277700,2.217277587890625,-0.7837556004524231,-0.45862168073654175,-0.23393870890140533
1782891393651299800,2.2272998046875,-0.7280364036560059,-0.514501690864563,0.0008724690414965153
1782891393661321700,2.23732177734375,-0.5870784521102905,-0.5678698420524597,0.2287178784608841
1782891393671343900,2.24734375,-0.3972659409046173,-0.6270277500152588,0.43753018975257874
1782891393681365800,2.25736572265625,-0.19255109131336212,-0.6599688529968262,0.632489800453186
1782891393691387600,2.2673876953125,-0.004037372302263975,-0.6428585648536682,0.8045859336853027
1782891393701408800,2.27740869140625,0.14929313957691193,-0.5676823258399963,0.9502900838851929
1782891393711431000,2.287430908203125,0.24971801042556763,-0.44863346219062805,1.068489909172058
1782891393721452800,2.297452880859375,0.3091222047805786,-0.3137783706188202,1.150404453277588
1782891393731474700,2.307474609375,0.3367628753185272,-0.19265063107013702,1.1806575059890747
1782891393741496800,2.317496826171875,0.3658115863800049,-0.09183049201965332,1.157387375831604
1782891393751518700,2.327518798828125,0.39573246240615845,-0.02054513245820999,1.0816679000854492
1782891393761540600,2.33754052734375,0.4276009202003479,0.04028923436999321,0.957532525062561
1782891393771562800,2.347562744140625,0.44852325320243835,0.07463228702545166,0.8116488456726074
1782891393781584600,2.357584716796875,0.4482966661453247,0.09307992458343506,0.6471596956253052
1782891393791606800,2.367606689453125,0.41241297125816345,0.09665415436029434,0.472711443901062
1782891393801629000,2.37762890625,0.3372539281845093,0.08006119728088379,0.2966611385345459
1782891393811650800,2.38765087890625,0.21976006031036377,0.055201124399900436,0.11805173009634018
1782891393821672700,2.397672607421875,0.07661011070013046,0.01911838911473751,-0.047943901270627975
1782891393831694800,2.40769482421875,-0.08058404177427292,-0.011504501104354858,-0.20164398849010468
1782891393841715700,2.4177158203125,-0.22103312611579895,-0.05583184212446213,-0.31483033299446106
1782891393851737900,2.42773779296875,-0.32198265194892883,-0.10422360897064209,-0.38236144185066223
1782891393861759700,2.437759765625,-0.3749580979347229,-0.15480582416057587,-0.407364159822464
1782891393871782000,2.447781982421875,-0.39552435278892517,-0.20960594713687897,-0.402767539024353
1782891393881803800,2.4578037109375,-0.392353355884552,-0.27635669708251953,-0.37028414011001587
1782891393891825700,2.46782568359375,-0.37128323316574097,-0.34103715419769287,-0.31836873292922974
1782891393901847800,2.477847900390625,-0.338450163602829,-0.40958964824676514,-0.2533293068408966
1782891393911869700,2.48786962890625,-0.30725789070129395,-0.4660944640636444,-0.1872301995754242
1782891393921891600,2.4978916015625,-0.2868230640888214,-0.48654064536094666,-0.11747494339942932
1782891393931913700,2.507913818359375,-0.28433433175086975,-0.4586259424686432,-0.043732546269893646
1782891393941935900,2.517935791015625,-0.2921488583087921,-0.41593697667121887,0.021804649382829666
1782891393951957800,2.527957763671875,-0.3194979131221771,-0.3788127601146698,0.0626615360379219
1782891393961979600,2.537979736328125,-0.3568839728832245,-0.35630032420158386,0.07511932402849197
1782891393972001800,2.548001708984375,-0.40174704790115356,-0.3564968705177307,0.05941546708345413
1782891393982023700,2.558023681640625,-0.44486552476882935,-0.37539035081863403,0.02459944784641266
1782891393992044800,2.568044921875,-0.4565218985080719,-0.3870163857936859,-0.015575402416288853
1782891394002067000,2.57806689453125,-0.4387543797492981,-0.38563185930252075,-0.059340666979551315
1782891394012088800,2.5880888671875,-0.4269280731678009,-0.3940106928348541,-0.12197928875684738
1782891394022110700,2.59811083984375,-0.4399220049381256,-0.4297063648700714,-0.2120278775691986
1782891394032132600,2.608132568359375,-0.48350465297698975,-0.4792441129684448,-0.3163052499294281
1782891394042154800,2.61815478515625,-0.5566235184669495,-0.5116382241249084,-0.40554705262184143
1782891394052176600,2.6281767578125,-0.6588824987411499,-0.4706113934516907,-0.46107688546180725
1782891394062198500,2.638198486328125,-0.7783312797546387,-0.3465532660484314,-0.4748564660549164
1782891394072221000,2.648220947265625,-0.8893702030181885,-0.17048020660877228,-0.429826945066452
1782891394082242800,2.658242919921875,-0.9682859182357788,0.0412726067006588,-0.32254186272621155
1782891394092264700,2.6682646484375,-1.004997730255127,0.2644244432449341,-0.19066959619522095
1782891394102286800,2.678286865234375,-0.9883552193641663,0.4340367317199707,-0.08640953153371811
1782891394112308700,2.688308837890625,-0.9160578846931458,0.5139936804771423,-0.03149488940834999
1782891394122330600,2.69833056640625,-0.8166337609291077,0.4819999933242798,-0.03453311324119568
1782891394132351700,2.708351806640625,-0.7097520232200623,0.37289959192276,-0.07182562351226807
1782891394142374000,2.718373779296875,-0.6199538707733154,0.23770080506801605,-0.11511380970478058
1782891394152395800,2.728395751953125,-0.5415692925453186,0.11417752504348755,-0.13908839225769043
1782891394162417700,2.738417724609375,-0.4783225953578949,0.01654599979519844,-0.12188791483640671
1782891394172439800,2.748439697265625,-0.42092400789260864,-0.040891461074352264,-0.05590943619608879
1782891394182461700,2.758461669921875,-0.3765016794204712,-0.04989836364984512,0.04763905331492424
1782891394192483600,2.768483642578125,-0.34787189960479736,-0.028782160952687263,0.15500785410404205
1782891394202505700,2.778505615234375,-0.34841489791870117,-0.02224360965192318,0.23404832184314728
1782891394212527900,2.78852783203125,-0.3506578207015991,-0.047490112483501434,0.2617478668689728
1782891394222549800,2.7985498046875,-0.35199958086013794,-0.10321807861328125,0.22385725378990173
1782891394232572000,2.808572021484375,-0.35423797369003296,-0.1771186739206314,0.14974628388881683
1782891394242593800,2.81859375,-0.35708630084991455,-0.2670271694660187,0.05663534626364708
1782891394252615700,2.82861572265625,-0.36631202697753906,-0.3552345335483551,-0.0418105311691761
1782891394262637800,2.838637939453125,-0.3804556727409363,-0.43025657534599304,-0.11903436481952667
1782891394272659000,2.848658935546875,-0.40348535776138306,-0.497279554605484,-0.15978392958641052
1782891394282680800,2.858680908203125,-0.4375688135623932,-0.5356331467628479,-0.14872987568378448
1782891394292702700,2.86870263671875,-0.48163720965385437,-0.5105616450309753,-0.12016560882329941
1782891394302724900,2.878724853515625,-0.5285451412200928,-0.44027042388916016,-0.08613301813602448
1782891394312746800,2.888746826171875,-0.5635273456573486,-0.34286558628082275,-0.05806170776486397
1782891394322768600,2.8987685546875,-0.571378767490387,-0.22102554142475128,-0.044265296310186386
1782891394332790800,2.908790771484375,-0.5647088289260864,-0.08515958487987518,-0.049075763672590256
1782891394342812700,2.918812744140625,-0.5426408052444458,0.06528228521347046,-0.07262564450502396
1782891394352834800,2.928834716796875,-0.5193690061569214,0.22811701893806458,-0.1083410307765007
1782891394362856700,2.938856689453125,-0.47754308581352234,0.3755427896976471,-0.15558063983917236
1782891394372878800,2.94887890625,-0.41932958364486694,0.4936065971851349,-0.19679571688175201
1782891394382900700,2.958900634765625,-0.33435022830963135,0.5823009610176086,-0.23042160272598267
1782891394392922600,2.968922607421875,-0.22831088304519653,0.6430838704109192,-0.2553378641605377
1782891394402944800,2.97894482421875,-0.09889353811740875,0.6488801836967468,-0.26698625087738037
1782891394412966700,2.988966552734375,0.04119778424501419,0.6027307510375977,-0.266711950302124
1782891394422987800,2.99898779296875,0.1857246309518814,0.5141475200653076,-0.24148622155189514
1782891394433010000,3.009010009765625,0.32171255350112915,0.4009719789028168,-0.19610169529914856
1782891394443032600,3.019032470703125,0.446723073720932,0.29883942008018494,-0.11288603395223618
1782891394453054700,3.0290546875,0.5681419372558594,0.2189885377883911,-0.006481035612523556
1782891394463076600,3.03907666015625,0.6900468468666077,0.1639537364244461,0.10397355258464813
1782891394473098500,3.049098388671875,0.817947506904602,0.1292133331298828,0.21893103420734406
1782891394483120600,3.05912060546875,0.9299184083938599,0.14219753444194794,0.3105984926223755
1782891394493142500,3.069142578125,1.0216119289398193,0.1698235720396042,0.377723753452301
1782891394503164400,3.079164306640625,1.0972789525985718,0.19006673991680145,0.41082146763801575
1782891394513186800,3.089186767578125,1.1483436822891235,0.20455648005008698,0.404375821352005
1782891394523208700,3.099208740234375,1.1767443418502808,0.21183879673480988,0.3600226044654846
1782891394533230600,3.109230712890625,1.1850941181182861,0.21922028064727783,0.2864037752151489
1782891394543252700,3.119252685546875,1.1666553020477295,0.22900229692459106,0.20874802768230438
1782891394553274600,3.129274658203125,1.1173441410064697,0.2191411405801773,0.1288667917251587
1782891394563295500,3.13929541015625,1.0534119606018066,0.20249514281749725,0.05550537258386612
1782891394573317600,3.149317626953125,0.9854469895362854,0.19718320667743683,0.005786288529634476
1782891394583339800,3.15933984375,0.9325159192085266,0.21981514990329742,-0.020257126539945602
1782891394593361700,3.169361572265625,0.892279326915741,0.2860833704471588,-0.010176794603466988
1782891394603383600,3.179383544921875,0.8745628595352173,0.39307084679603577,0.03612101823091507
1782891394613405700,3.18940576171875,0.8822159767150879,0.5324388742446899,0.10374720394611359
1782891394623427600,3.199427490234375,0.921730637550354,0.6827279329299927,0.18364177644252777
1782891394633449500,3.209449462890625,0.9875690340995789,0.8105591535568237,0.2534317672252655
1782891394643471600,3.2194716796875,1.0669066905975342,0.8827414512634277,0.3060065507888794
1782891394653493800,3.22949365234375,1.1415899991989136,0.8950969576835632,0.3502073287963867
1782891394663515600,3.239515625,1.2084177732467651,0.8534124493598938,0.3797520399093628
1782891394673537800,3.249537841796875,1.2712905406951904,0.7800602316856384,0.39901015162467957
1782891394683559700,3.2595595703125,1.3304154872894287,0.6946744918823242,0.41038790345191956
1782891394693581600,3.26958154296875,1.378369927406311,0.6156771183013916,0.4177989661693573
1782891394703603500,3.279603515625,1.4161012172698975,0.5401978492736816,0.43078234791755676
1782891394713624800,3.289624755859375,1.4390584230422974,0.45683133602142334,0.4412520229816437
1782891394723646700,3.299646728515625,1.4459134340286255,0.3817805051803589,0.4541887640953064
1782891394733668600,3.309668701171875,1.430098056793213,0.3425252437591553,0.4726647138595581
1782891394743690800,3.319690673828125,1.3762634992599487,0.3311181366443634,0.4882027506828308
1782891394753712600,3.329712646484375,1.3023171424865723,0.34847715497016907,0.48848238587379456
1782891394763734500,3.339734619140625,1.216418981552124,0.364411324262619,0.4550330638885498
1782891394773756400,3.34975634765625,1.1190707683563232,0.3480962812900543,0.3916924297809601
1782891394783778600,3.359778564453125,1.0183876752853394,0.30651161074638367,0.3050728738307953
1782891394793800700,3.36980078125,0.921823263168335,0.25514429807662964,0.20522937178611755
1782891394803822600,3.379822509765625,0.8349296450614929,0.21675477921962738,0.11078673601150513
1782891394813844700,3.3898447265625,0.771345853805542,0.1898736208677292,0.02776828594505787
1782891394823866600,3.39986669921875,0.7464872598648071,0.15904034674167633,-0.022328022867441177
1782891394833888500,3.409888427734375,0.73670893907547,0.14988279342651367,-0.04449883848428726
1782891394843910700,3.41991064453125,0.7450640797615051,0.16490978002548218,-0.03742814064025879
1782891394853931800,3.429931884765625,0.7718096375465393,0.1886233687400818,-0.021822551265358925
1782891394863953700,3.43995361328125,0.8175820708274841,0.22614219784736633,-0.002539800014346838
1782891394873975600,3.4499755859375,0.8778581619262695,0.2734796106815338,0.012146200984716415
1782891394883997700,3.459997802734375,0.9531553387641907,0.33446264266967773,0.02122921124100685
1782891394894019600,3.47001953125,1.02763032913208,0.4039287865161896,0.02434431202709675
1782891394904041500,3.48004150390625,1.0882059335708618,0.4675354063510895,0.005537510849535465
1782891394914063600,3.490063720703125,1.136980652809143,0.534403920173645,-0.034809648990631104
1782891394924085500,3.50008544921875,1.1751646995544434,0.5970726609230042,-0.09179987013339996
1782891394934107600,3.510107666015625,1.2040146589279175,0.6562027931213379,-0.15346775949001312
1782891394944129800,3.5201298828125,1.219433307647705,0.7145546078681946,-0.22115178406238556
1782891394954151700,3.530151611328125,1.2337603569030762,0.7558578252792358,-0.29285845160484314
1782891394964173600,3.540173583984375,1.235090970993042,0.7782271504402161,-0.3598812222480774
1782891394974195700,3.55019580078125,1.2134509086608887,0.7635589838027954,-0.4250357449054718
1782891394984217600,3.560217529296875,1.178755283355713,0.7248786091804504,-0.47624123096466064
1782891394994239500,3.570239501953125,1.1555192470550537,0.66850745677948,-0.5126229524612427
1782891395004260600,3.580260498046875,1.1477432250976562,0.6027811169624329,-0.5273454189300537
1782891395014282800,3.59028271484375,1.1564650535583496,0.5435212850570679,-0.5189785957336426
1782891395024304600,3.6003046875,1.1743957996368408,0.500718355178833,-0.49729621410369873
1782891395034326500,3.610326416015625,1.2005301713943481,0.46765413880348206,-0.47454240918159485
1782891395044348700,3.6203486328125,1.2313117980957031,0.4383011758327484,-0.46417897939682007
1782891395054370600,3.63037060546875,1.2646750211715698,0.4122011363506317,-0.4550456702709198
1782891395064392400,3.640392333984375,1.2866060733795166,0.3828171193599701,-0.45270654559135437
1782891395074414800,3.650414794921875,1.2975258827209473,0.3552454113960266,-0.4526199698448181
1782891395084436700,3.660436767578125,1.2954034805297852,0.33442533016204834,-0.441643089056015
1782891395094458600,3.670458740234375,1.2931914329528809,0.3322252929210663,-0.4151979088783264
1782891395104480500,3.68048046875,1.2983819246292114,0.34721946716308594,-0.37664657831192017
1782891395114502700,3.690502685546875,1.31096351146698,0.36887016892433167,-0.3206253945827484
1782891395124524500,3.700524658203125,1.336303949356079,0.4001983106136322,-0.26306259632110596
1782891395134546400,3.71054638671875,1.380466341972351,0.43285614252090454,-0.21030060946941376
1782891395144567800,3.72056787109375,1.430640697479248,0.46834230422973633,-0.1705605387687683
1782891395154589700,3.730589599609375,1.4830958843231201,0.5033649802207947,-0.14147509634494781
1782891395164611600,3.740611572265625,1.5270583629608154,0.5513114333152771,-0.12705381214618683
1782891395174633500,3.750633544921875,1.562743067741394,0.6086623668670654,-0.11725737899541855
1782891395184655600,3.760655517578125,1.5901293754577637,0.6661580801010132,-0.11511243134737015
1782891395194677500,3.770677490234375,1.604358434677124,0.705632209777832,-0.11652842909097672
1782891395204699400,3.780699462890625,1.6055885553359985,0.7210582494735718,-0.11294350773096085
1782891395214721800,3.7907216796875,1.6014994382858276,0.7295542359352112,-0.10883797705173492
1782891395224743700,3.80074365234375,1.5860319137573242,0.7135476469993591,-0.10166215896606445
1782891395234765600,3.810765625,1.5712034702301025,0.673363208770752,-0.09313604980707169
1782891395244787700,3.82078759765625,1.5476117134094238,0.6218883395195007,-0.09224600344896317
1782891395254809600,3.8308095703125,1.5239551067352295,0.571074903011322,-0.0843297615647316
1782891395264831500,3.84083154296875,1.4912327527999878,0.5220732092857361,-0.07429374754428864
1782891395274853600,3.850853515625,1.4480984210968018,0.47445669770240784,-0.052681662142276764
1782891395284874800,3.860874755859375,1.40691077709198,0.44330522418022156,-0.01890934817492962
1782891395294896600,3.870896728515625,1.3656381368637085,0.43174150586128235,0.025105513632297516
1782891395304918500,3.88091845703125,1.3165032863616943,0.4366540014743805,0.06554887443780899
1782891395314940700,3.890940673828125,1.2671072483062744,0.437065988779068,0.08892770111560822
1782891395324962600,3.900962646484375,1.2115247249603271,0.43818771839141846,0.08348918706178665
1782891395334984400,3.910984375,1.160862684249878,0.43727877736091614,0.05291077122092247
1782891395345006600,3.921006591796875,1.117090106010437,0.4295613169670105,0.010246891528367996
1782891395355028700,3.93102880859375,1.0896241664886475,0.409469872713089,-0.028865888714790344
1782891395365050600,3.941050537109375,1.070729374885559,0.4036642611026764,-0.04462866112589836
1782891395375072800,3.95107275390625,1.0593321323394775,0.4066784083843231,-0.04123712703585625
1782891395385094700,3.9610947265625,1.0395554304122925,0.4020933508872986,-0.013278044760227203
1782891395395116500,3.971116455078125,1.021059513092041,0.391981840133667,0.024915145710110664
1782891395405138700,3.981138671875,0.9980118274688721,0.3837340772151947,0.062158744782209396
1782891395415160600,3.99116064453125,0.981581449508667,0.3837668299674988,0.07887408137321472
1782891395425181700,4.001181640625,0.9690026640892029,0.36481475830078125,0.07512634992599487
1782891395435203600,4.01120361328125,0.9730842113494873,0.31114593148231506,0.03882186859846115
1782891395445225500,4.0212255859375,0.9832079410552979,0.22505837678909302,-0.00774191552773118
1782891395455247400,4.031247314453125,0.9952816367149353,0.149634450674057,-0.04838894307613373
1782891395465269500,4.04126953125,1.0142046213150024,0.10678672790527344,-0.06877034902572632
1782891395475291400,4.05129150390625,1.042608380317688,0.09956103563308716,-0.07529136538505554
1782891395485313500,4.0613134765625,1.0788848400115967,0.1056685596704483,-0.07894807308912277
1782891395495335400,4.07133544921875,1.110788106918335,0.1027582511305809,-0.09983444958925247
1782891395505357600,4.081357666015625,1.1283422708511353,0.08020695298910141,-0.14078930020332336
1782891395515379500,4.09137939453125,1.1086149215698242,0.04428943246603012,-0.19961906969547272
1782891395525401300,4.1014013671875,1.0543203353881836,0.0014122729189693928,-0.2694476842880249
1782891395535423500,4.111423583984375,0.9679988026618958,-0.0639992281794548,-0.3496602177619934
1782891395545445400,4.1214453125,0.8615093231201172,-0.1535208523273468,-0.42271313071250916
1782891395555467300,4.13146728515625,0.7538920640945435,-0.24521960318088531,-0.4647199809551239
1782891395565489400,4.141489501953125,0.642067015171051,-0.2965257167816162,-0.4739646315574646
1782891395575510500,4.151510498046875,0.5320569276809692,-0.29526472091674805,-0.4416346549987793
1782891395585532400,4.161532470703125,0.4381643831729889,-0.2595987319946289,-0.3805488049983978
1782891395595554300,4.17155419921875,0.38227877020835876,-0.17160122096538544,-0.29798948764801025
1782891395605576400,4.181576416015625,0.3663819432258606,-0.05956514552235603,-0.20385006070137024
1782891395615598300,4.191598388671875,0.38098084926605225,0.05567409470677376,-0.1088804081082344
1782891395625620500,4.201620361328125,0.4092150032520294,0.1751445233821869,-0.010059960186481476
1782891395635642600,4.211642578125,0.43990421295166016,0.29810240864753723,0.0705973356962204
1782891395645664500,4.22166455078125,0.4482779800891876,0.3889548182487488,0.13955456018447876
1782891395655686400,4.231686279296875,0.4214378595352173,0.44680213928222656,0.17671604454517365
1782891395665708500,4.24170849609375,0.3661673367023468,0.46532711386680603,0.1940343827009201
1782891395675730400,4.25173046875,0.28389137983322144,0.4650147259235382,0.20676855742931366
1782891395685752300,4.26175244140625,0.17984336614608765,0.4457051157951355,0.21994897723197937
1782891395695774500,4.2717744140625,0.06991633027791977,0.411034494638443,0.23106394708156586
1782891395705796600,4.281796630859375,-0.03807355463504791,0.36691877245903015,0.24453851580619812
1782891395715817500,4.2918173828125,-0.13527493178844452,0.306225061416626,0.2580106556415558
1782891395725839400,4.30183935546875,-0.20887741446495056,0.25152388215065,0.2762523889541626
1782891395735861500,4.311861572265625,-0.25895071029663086,0.22674690186977386,0.3057383894920349
1782891395745883400,4.32188330078125,-0.28544583916664124,0.23602204024791718,0.34648463129997253
1782891395755905300,4.3319052734375,-0.29724791646003723,0.2668749988079071,0.3787520229816437
1782891395765927700,4.341927734375,-0.3031480014324188,0.285927414894104,0.3956557512283325
1782891395775949600,4.351949462890625,-0.3091888427734375,0.3025258183479309,0.3955335319042206
1782891395785971500,4.361971435546875,-0.3200311064720154,0.3173961043357849,0.38253331184387207
1782891395795993600,4.37199365234375,-0.327525794506073,0.3250788152217865,0.36075448989868164
1782891395806015500,4.382015380859375,-0.3426339328289032,0.3280777037143707,0.3223871886730194
1782891395816037400,4.392037353515625,-0.3686855137348175,0.3180711269378662,0.26868003606796265
1782891395826059300,4.402059326171875,-0.412680447101593,0.2877464294433594,0.20428241789340973
1782891395836081400,4.412081298828125,-0.47205162048339844,0.2339377999305725,0.12113294750452042
1782891395846103600,4.422103515625,-0.5431161522865295,0.17837005853652954,0.04308786615729332
1782891395856124400,4.43212451171875,-0.6143937706947327,0.13223744928836823,-0.03939822316169739
1782891395866146600,4.442146484375,-0.6594057679176331,0.0808730199933052,-0.13096512854099274
1782891395876168400,4.45216845703125,-0.6676559448242188,0.022977229207754135,-0.23493626713752747
1782891395886190300,4.4621904296875,-0.6402084231376648,-0.024257171899080276,-0.3370412588119507
1782891395896212200,4.472212158203125,-0.5849595069885254,-0.0549602247774601,-0.4341917932033539
1782891395906234600,4.482234619140625,-0.5131115913391113,-0.0971674770116806,-0.5284457206726074
1782891395916256500,4.492256591796875,-0.4366633892059326,-0.15101924538612366,-0.6010032892227173
1782891395926278400,4.5022783203125,-0.3599185049533844,-0.19682477414608002,-0.6333463788032532
1782891395936300500,4.512300537109375,-0.29896193742752075,-0.22832757234573364,-0.6168158650398254
1782891395946322400,4.522322509765625,-0.2582613229751587,-0.2503039538860321,-0.5659692883491516
1782891395956344300,4.53234423828125,-0.24564644694328308,-0.2835995852947235,-0.49310675263404846
1782891395966366500,4.542366455078125,-0.2557069659233093,-0.30821457505226135,-0.4061916768550873
1782891395976388400,4.552388427734375,-0.298245906829834,-0.30121418833732605,-0.2992314100265503
1782891395986410500,4.562410400390625,-0.35445070266723633,-0.3011103570461273,-0.1902906894683838
1782891395996431400,4.572431396484375,-0.41814473271369934,-0.2881482243537903,-0.08085367828607559
1782891396006453500,4.58245361328125,-0.49216267466545105,-0.26373377442359924,0.0027268673293292522
1782891396016475400,4.592475341796875,-0.5650931000709534,-0.2727251350879669,0.045845843851566315
1782891396026497300,4.602497314453125,-0.6161958575248718,-0.3406997323036194,0.03604639321565628
1782891396036519400,4.61251953125,-0.6345876455307007,-0.4369085729122162,0.0024727219715714455
1782891396046541600,4.62254150390625,-0.6220998764038086,-0.5029856562614441,-0.014289690181612968
1782891396056563500,4.6325634765625,-0.5948426723480225,-0.5037957429885864,0.0032083436381071806
1782891396066585600,4.642585693359375,-0.5574085712432861,-0.478020042181015,0.05046992748975754
1782891396076607500,4.652607421875,-0.5282219052314758,-0.42864343523979187,0.1087350994348526
1782891396086629400,4.66262939453125,-0.4955254793167114,-0.3825894892215729,0.15312014520168304
1782891396096651500,4.672651611328125,-0.47470220923423767,-0.3698939383029938,0.1745050549507141
1782891396106673400,4.68267333984375,-0.4773741066455841,-0.42398619651794434,0.16704599559307098
1782891396116695300,4.6926953125,-0.5065692663192749,-0.5137723088264465,0.1438876837491989
1782891396126717400,4.702717529296875,-0.5584384799003601,-0.618542492389679,0.10675353556871414
1782891396136738600,4.712738525390625,-0.6336855888366699,-0.7251232862472534,0.05517609044909477
1782891396146760400,4.722760498046875,-0.7110247611999512,-0.8435202240943909,0.0055019548162817955
1782891396156782300,4.7327822265625,-0.7941169738769531,-0.9475049376487732,-0.02556009031832218
1782891396166804500,4.742804443359375,-0.8783039450645447,-1.0088433027267456,-0.017354488372802734
1782891396176826400,4.752826416015625,-0.9349360466003418,-1.008678674697876,0.03804671764373779
1782891396186848500,4.7628486328125,-0.9506041407585144,-0.9517359733581543,0.13295242190361023
1782891396196870700,4.77287060546875,-0.9266314506530762,-0.8527958393096924,0.24315668642520905
1782891396206892500,4.782892578125,-0.8733205199241638,-0.744459331035614,0.3298880457878113
1782891396216914400,4.79291455078125,-0.7922371029853821,-0.662723958492279,0.3610920310020447
1782891396226936300,4.802936279296875,-0.699590265750885,-0.6120600700378418,0.3259500563144684
1782891396236958500,4.81295849609375,-0.6167742013931274,-0.5709262490272522,0.23655547201633453
1782891396246980400,4.82298046875,-0.5557044148445129,-0.5172519683837891,0.10149209201335907
1782891396257002200,4.833002197265625,-0.5061022043228149,-0.45793724060058594,-0.054561156779527664
1782891396267024600,4.843024658203125,-0.48009932041168213,-0.41358673572540283,-0.20992977917194366
1782891396277045500,4.85304541015625,-0.47106000781059265,-0.38610130548477173,-0.3260380029678345
1782891396287067400,4.8630673828125,-0.47345229983329773,-0.37479323148727417,-0.3797167241573334
1782891396297089300,4.87308935546875,-0.48072245717048645,-0.3634268641471863,-0.36511194705963135
1782891396307111400,4.883111328125,-0.48508939146995544,-0.34301018714904785,-0.28915202617645264
1782891396317133300,4.89313330078125,-0.4827796518802643,-0.3070359528064728,-0.1669696718454361
1782891396327155500,4.903155517578125,-0.47613227367401123,-0.24839861690998077,-0.009824900887906551
1782891396337177600,4.913177490234375,-0.44932836294174194,-0.1610594540834427,0.17570821940898895
1782891396347199500,4.923199462890625,-0.3931536376476288,-0.04911765456199646,0.3634955585002899
1782891396357221400,4.933221435546875,-0.32119929790496826,0.10167904198169708,0.5289484858512878
1782891396367243500,4.943243408203125,-0.24610945582389832,0.26619863510131836,0.6258958578109741
1782891396377265400,4.953265380859375,-0.16030213236808777,0.4098055958747864,0.6398503184318542
1782891396387287300,4.963287353515625,-0.05756920948624611,0.5029622912406921,0.572955310344696
1782891396397309400,4.973309326171875,0.04161037132143974,0.5437190532684326,0.44063425064086914
1782891396407331600,4.98333154296875,0.12337170541286469,0.5417535901069641,0.2709720730781555
1782891396417352400,4.9933525390625,0.17646127939224243,0.48605623841285706,0.08352895826101303
1782891396427374300,5.003374267578125,0.20176339149475098,0.38611650466918945,-0.07057907432317734
1782891396437396500,5.013396484375,0.1869165450334549,0.26068028807640076,-0.16093985736370087
1782891396447418000,5.023418212890625,0.14234338700771332,0.11399824917316437,-0.17249628901481628
1782891396457440300,5.033440185546875,0.09251618385314941,-0.004535321611911058,-0.10882383584976196
1782891396467462400,5.04346240234375,0.05164265260100365,-0.08222532272338867,-0.0014272109838202596
1782891396477484300,5.053484375,0.0458793044090271,-0.11620299518108368,0.12616483867168427
1782891396487506200,5.063506103515625,0.0779116153717041,-0.1189311295747757,0.23812085390090942
1782891396497528300,5.0735283203125,0.12893511354923248,-0.0832463800907135,0.31083154678344727
1782891396507550200,5.08355029296875,0.19588622450828552,-0.015946608036756516,0.33733341097831726
1782891396517572000,5.093572021484375,0.2626167833805084,0.08348624408245087,0.32507434487342834
1782891396527594000,5.103593994140625,0.31750768423080444,0.18825069069862366,0.2732221186161041
1782891396537616100,5.1136162109375,0.356879323720932,0.27140840888023376,0.19164417684078217
1782891396547638300,5.12363818359375,0.37126898765563965,0.3314346373081207,0.09459452331066132
1782891396557659100,5.1336591796875,0.3699589669704437,0.37715765833854675,-0.007556349039077759
1782891396567681300,5.143681396484375,0.3696018159389496,0.39786338806152344,-0.08448677510023117
1782891396577703200,5.153703125,0.376034677028656,0.39621007442474365,-0.1363142877817154
1782891396587725000,5.16372509765625,0.3874765634536743,0.38712409138679504,-0.15181057155132294
1782891396597747200,5.173747314453125,0.38561874628067017,0.3562476634979248,-0.14005938172340393
1782891396607769300,5.183769287109375,0.37502238154411316,0.292839378118515,-0.10936759412288666
1782891396617791200,5.193791259765625,0.34934020042419434,0.20428714156150818,-0.057252734899520874
1782891396627813000,5.203813232421875,0.31685665249824524,0.10533743351697922,0.005813209805637598
1782891396637835300,5.213835205078125,0.27430734038352966,0.03438575565814972,0.07861258089542389
1782891396647857200,5.223857177734375,0.23399561643600464,-0.0044205388985574245,0.1489357352256775
1782891396657879000,5.233879150390625,0.20440763235092163,-0.037175558507442474,0.1987381875514984
1782891396667901200,5.243901123046875,0.18505966663360596,-0.07447192072868347,0.2258812040090561
1782891396677923300,5.25392333984375,0.18697500228881836,-0.1046798974275589,0.2324371039867401
1782891396687945200,5.2639453125,0.20785163342952728,-0.12839680910110474,0.2323315590620041
1782891396697966000,5.273966064453125,0.24402987957000732,-0.16055262088775635,0.24030852317810059
1782891396707988200,5.28398828125,0.28509894013404846,-0.2008608877658844,0.25878188014030457
1782891396718010000,5.294010009765625,0.3199610412120819,-0.23142865300178528,0.2856185734272003
1782891396728032000,5.304031982421875,0.34290027618408203,-0.25886300206184387,0.30665290355682373
1782891396738054400,5.314054443359375,0.3484657406806946,-0.29015007615089417,0.33036917448043823
1782891396748076300,5.324076171875,0.3280540704727173,-0.3064141869544983,0.35566481947898865
1782891396758098200,5.33409814453125,0.30682602524757385,-0.2802334427833557,0.3903186619281769
1782891396768120300,5.344120361328125,0.3129264712333679,-0.20650549232959747,0.428214967250824
1782891396778142200,5.35414208984375,0.3683377802371979,-0.07589077204465866,0.45042094588279724
1782891396788164000,5.3641640625,0.4462859034538269,0.09577535092830658,0.39807406067848206
1782891396798186200,5.374186279296875,0.48855772614479065,0.23058803379535675,0.22063322365283966
1782891396808208100,5.3842080078125,0.46600037813186646,0.2699052393436432,-0.07424410432577133
1782891396818230300,5.394230224609375,0.3709106147289276,0.23369665443897247,-0.44389379024505615
1782891396828252400,5.40425244140625,0.22417883574962616,0.1328202784061432,-0.8050788044929504
1782891396838273300,5.414273193359375,0.02146141231060028,-0.013482343405485153,-1.0781440734863281
1782891396848295200,5.424295166015625,-0.22248387336730957,-0.15572842955589294,-1.2211390733718872
1782891396858317000,5.434317138671875,-0.4403024911880493,-0.3004411458969116,-1.2539199590682983
1782891396868339200,5.444339111328125,-0.5944211483001709,-0.45047515630722046,-1.1840581893920898
1782891396878361300,5.454361328125,-0.6811779141426086,-0.5800973176956177,-1.0039774179458618
1782891396888383200,5.46438330078125,-0.6905106902122498,-0.6256082057952881,-0.7407762408256531
1782891396898405400,5.4744052734375,-0.6033837795257568,-0.5818077325820923,-0.4204341769218445
1782891396908427300,5.48442724609375,-0.4390175938606262,-0.4751710593700409,-0.13849134743213654
1782891396918449200,5.49444921875,-0.2172393947839737,-0.3734723925590515,0.14152993261814117
1782891396928471000,5.504470947265625,0.0024448749609291553,-0.24080266058444977,0.4604417681694031
1782891396938493200,5.5144931640625,0.1413700133562088,-0.03800161927938461,0.716205358505249
1782891396948515000,5.52451513671875,0.2236924022436142,0.17691507935523987,0.8687769770622253
1782891396958537200,5.534537109375,0.2940610945224762,0.3045710325241089,0.9189839363098145
1782891396968558300,5.544558349609375,0.3542172312736511,0.3659974932670593,0.8828991055488586
1782891396978580200,5.554580322265625,0.3740790784358978,0.37665680050849915,0.8020644187927246
1782891396988602000,5.56460205078125,0.356928288936615,0.3927350342273712,0.703853189945221
1782891396998624000,5.5746240234375,0.31335416436195374,0.42398402094841003,0.6089996695518494
1782891397008646100,5.584646240234375,0.25275346636772156,0.43484607338905334,0.5188393592834473
1782891397018668300,5.594668212890625,0.18736670911312103,0.38383162021636963,0.4120250344276428
1782891397028690200,5.604690185546875,0.10064015537500381,0.287979394197464,0.2980318069458008
1782891397038712300,5.61471240234375,-0.008543062023818493,0.1808694750070572,0.17782549560070038
1782891397048734200,5.624734130859375,-0.13456818461418152,0.060065824538469315,0.06075061857700348
1782891397058756000,5.634756103515625,-0.26626360416412354,-0.06103743240237236,-0.041867900639772415
1782891397068778200,5.6447783203125,-0.37403246760368347,-0.16148126125335693,-0.11211936920881271
1782891397078800100,5.654800048828125,-0.45727357268333435,-0.21769019961357117,-0.1629740297794342
1782891397088822000,5.664822021484375,-0.5070695281028748,-0.2282751053571701,-0.21895113587379456
1782891397098844400,5.674844482421875,-0.5295782685279846,-0.2169761210680008,-0.2972067892551422
1782891397108865300,5.684865234375,-0.5371720790863037,-0.18421195447444916,-0.398397296667099
1782891397118887200,5.69488720703125,-0.5282819271087646,-0.11691920459270477,-0.5067504048347473
1782891397128909000,5.704908935546875,-0.5094442963600159,-0.03891885653138161,-0.6245859265327454
1782891397138931200,5.71493115234375,-0.47488951683044434,0.03188873827457428,-0.7453661561012268
1782891397148953000,5.724953125,-0.42831581830978394,0.08784858137369156,-0.8452659249305725
1782891397158975200,5.734975341796875,-0.3900328576564789,0.13880550861358643,-0.9119358062744141
1782891397168997400,5.744997314453125,-0.35447514057159424,0.18048425018787384,-0.9370520710945129
1782891397179019300,5.755019287109375,-0.3152931034564972,0.21841272711753845,-0.915302038192749
1782891397189041200,5.765041259765625,-0.2731059789657593,0.2481658160686493,-0.8598190546035767
1782891397199063300,5.775063232421875,-0.2330116331577301,0.2759316861629486,-0.7864853143692017
1782891397209085200,5.785085205078125,-0.19649648666381836,0.2745816707611084,-0.716051459312439
1782891397219107000,5.795107177734375,-0.17349369823932648,0.23935337364673615,-0.6631339192390442
1782891397229129200,5.805129150390625,-0.13683435320854187,0.18591119349002838,-0.6052107810974121
1782891397239151400,5.8151513671875,-0.06961216032505035,0.12723083794116974,-0.5316652059555054
1782891397249173200,5.82517333984375,0.05559663474559784,0.06671945750713348,-0.42969173192977905
1782891397259194000,5.835194091796875,0.24685794115066528,0.015570791438221931,-0.29195836186408997
1782891397269216300,5.84521630859375,0.4930465817451477,-0.03562062606215477,-0.12408723682165146
1782891397279238100,5.855238037109375,0.7514070272445679,-0.09163862466812134,0.047368936240673065
1782891397289260000,5.865260009765625,0.9930324554443359,-0.1409192532300949,0.19939391314983368
1782891397299282400,5.875282470703125,1.1919652223587036,-0.16597801446914673,0.3129290044307709
1782891397309304300,5.88530419921875,1.3386832475662231,-0.14829324185848236,0.4093623459339142
1782891397319326200,5.895326171875,1.4276927709579468,-0.09622365236282349,0.484392911195755
1782891397329348000,5.90534814453125,1.4709932804107666,-0.03171398863196373,0.5547255277633667
1782891397339370200,5.915370361328125,1.4752694368362427,0.04292643070220947,0.6294212937355042
1782891397349392100,5.92539208984375,1.4598667621612549,0.14135447144508362,0.7278371453285217
1782891397359414000,5.9354140625,1.4681518077850342,0.2846580743789673,0.8367132544517517
1782891397369436200,5.945436279296875,1.5365819931030273,0.44189953804016113,0.9471373558044434
1782891397379458300,5.955458251953125,1.64845609664917,0.5668103098869324,1.0137672424316406
1782891397389479200,5.965479248046875,1.789044976234436,0.6637762188911438,1.036489725112915
1782891397399501000,5.9755009765625,1.9341638088226318,0.7673358917236328,1.0247209072113037
1782891397409523200,5.985523193359375,2.033670425415039,0.8272444605827332,0.9499420523643494
1782891397419545000,5.995545166015625,2.0660488605499268,0.8210755586624146,0.8082677721977234
1782891397429567000,6.00556689453125,2.0485334396362305,0.7800098061561584,0.623840868473053
1782891397439589400,6.01558935546875,2.003657579421997,0.7278307676315308,0.4096987545490265
1782891397449611500,6.025611572265625,1.9410313367843628,0.6671971082687378,0.20489555597305298
1782891397459633400,6.03563330078125,1.8673651218414307,0.6258208751678467,0.048676397651433945
1782891397469655300,6.0456552734375,1.7882832288742065,0.6284083127975464,-0.022895678877830505
1782891397479677400,6.055677490234375,1.7266452312469482,0.6698492169380188,-0.010785754770040512
1782891397489699300,6.06569921875,1.7102879285812378,0.7467631697654724,0.08061879128217697
1782891397499721200,6.07572119140625,1.7587809562683105,0.8391652703285217,0.22504042088985443
1782891397509743000,6.0857431640625,1.8639070987701416,0.9263395071029663,0.41234058141708374
1782891397519765500,6.095765625,2.0328826904296875,1.002280592918396,0.5947756171226501
1782891397529786400,6.105786376953125,2.2401819229125977,1.0447758436203003,0.7382234334945679
1782891397539808300,6.115808349609375,2.441288471221924,1.0478097200393677,0.8034980297088623
1782891397549830400,6.125830322265625,2.592172384262085,1.0207310914993286,0.753474235534668
1782891397559852300,6.135852294921875,2.6904561519622803,0.9626637697219849,0.6170598864555359
1782891397569874200,6.145874267578125,2.749807596206665,0.8956747651100159,0.4273698627948761
1782891397579896300,6.155896240234375,2.7528975009918213,0.8265950679779053,0.23995867371559143
1782891397589918500,6.16591845703125,2.7131738662719727,0.7239319682121277,0.09677021950483322
1782891397599940400,6.1759404296875,2.637747287750244,0.5880159735679626,0.015260186046361923
1782891397609962200,6.185962158203125,2.5495831966400146,0.434933602809906,-0.014644423499703407
1782891397619984400,6.195984375,2.4492428302764893,0.28961876034736633,0.010183162055909634
1782891397630006300,6.20600634765625,2.3575403690338135,0.17251087725162506,0.08706145733594894
1782891397640028200,6.216028076171875,2.2787251472473145,0.10950101912021637,0.2047223150730133
1782891397650050300,6.22605029296875,2.2215054035186768,0.08292577415704727,0.34107333421707153
1782891397660072400,6.236072509765625,2.193887710571289,0.10487155616283417,0.47900962829589844
1782891397670093300,6.24609326171875,2.1916451454162598,0.1748211681842804,0.6029268503189087
1782891397680115200,6.256115234375,2.222722291946411,0.2963846027851105,0.7052545547485352
1782891397690137300,6.266137451171875,2.2727162837982178,0.4509887993335724,0.779290497303009
1782891397700159200,6.2761591796875,2.3301453590393066,0.6180680394172668,0.8099671602249146
1782891397710181000,6.28618115234375,2.367953300476074,0.7549809813499451,0.7947059273719788
1782891397720203500,6.29620361328125,2.366097927093506,0.861681342124939,0.7257753014564514
1782891397730225400,6.306225341796875,2.340015411376953,0.9289703369140625,0.621573805809021
1782891397740247300,6.316247314453125,2.291877269744873,0.9813570976257324,0.4990910291671753
1782891397750269400,6.32626953125,2.2234046459198,1.0162720680236816,0.3725210726261139
1782891397760291300,6.336291259765625,2.1254141330718994,1.0237103700637817,0.2508569657802582
1782891397770313200,6.346313232421875,2.005642890930176,1.030422329902649,0.15984779596328735
1782891397780335400,6.35633544921875,1.8659363985061646,1.0393972396850586,0.1086927279829979
1782891397790357200,6.366357177734375,1.7084797620773315,1.0354782342910767,0.07691396027803421
1782891397800379400,6.37637939453125,1.5364785194396973,1.0004220008850098,0.06131955608725548
1782891397810400300,6.386400146484375,1.3534468412399292,0.9270465970039368,0.03710612282156944
1782891397820422400,6.39642236328125,1.172806739807129,0.8179872632026672,-0.0010207563173025846
1782891397830444300,6.4064443359375,1.0130720138549805,0.6992055773735046,-0.04334241896867752
1782891397840466200,6.416466064453125,0.8859518766403198,0.6028720736503601,-0.09645171463489532
1782891397850488300,6.42648828125,0.7854948043823242,0.5439174771308899,-0.13149204850196838
1782891397860510500,6.436510498046875,0.7224242687225342,0.518127977848053,-0.14779219031333923
1782891397870532400,6.446532470703125,0.6670475602149963,0.5232784748077393,-0.15239015221595764
1782891397880554500,6.456554443359375,0.6237443089485168,0.5665567517280579,-0.13473846018314362
1782891397890576400,6.466576416015625,0.6022412180900574,0.6526951789855957,-0.10818678885698318
1782891397900598300,6.476598388671875,0.6048321723937988,0.7754378914833069,-0.06594718992710114
1782891397910620200,6.4866201171875,0.6415855884552002,0.9327875375747681,-0.028380824252963066
1782891397920642300,6.496642333984375,0.7015810012817383,1.0796056985855103,-0.01128759142011404
1782891397930664200,6.506664306640625,0.7446305751800537,1.1772522926330566,-0.0639825388789177
1782891397940685300,6.516685302734375,0.7589737772941589,1.2397481203079224,-0.18106362223625183
1782891397950707500,6.52670751953125,0.7318360805511475,1.3040175437927246,-0.3606519401073456
1782891397960729300,6.536729248046875,0.6467244029045105,1.3664199113845825,-0.5952423810958862
1782891397970751200,6.546751220703125,0.4936586320400238,1.3644300699234009,-0.8847090005874634
1782891397980773000,6.556773193359375,0.2823445200920105,1.2720763683319092,-1.1791812181472778
1782891397990795300,6.566795166015625,0.041312333196401596,1.1255748271942139,-1.4148942232131958
1782891398000817400,6.5768173828125,-0.164279967546463,0.9666264653205872,-1.5164463520050049
1782891398010839300,6.58683935546875,-0.2928529679775238,0.8160110116004944,-1.4808820486068726
1782891398020861400,6.596861328125,-0.34969601035118103,0.6919886469841003,-1.3302611112594604
1782891398030883300,6.60688330078125,-0.31247052550315857,0.6274732351303101,-1.085585594177246
1782891398040905200,6.6169052734375,-0.18928439915180206,0.6193149089813232,-0.7937057018280029
1782891398050927400,6.62692724609375,-0.0029442859813570976,0.6237629652023315,-0.5082671046257019
1782891398060949200,6.63694921875,0.2229064255952835,0.6197375655174255,-0.26680389046669006
1782891398070971100,6.64697119140625,0.44302430748939514,0.5844284892082214,-0.10588866472244263
1782891398080992300,6.6569921875,0.626149594783783,0.5426235198974609,-0.013313991017639637
1782891398091014400,6.667014404296875,0.7598509788513184,0.517325222492218,0.01732570305466652
1782891398101036300,6.677036376953125,0.8462047576904297,0.5042986273765564,0.008138597011566162
1782891398111058200,6.68705810546875,0.8883334994316101,0.5058817863464355,-0.035749178379774094
1782891398121080300,6.697080322265625,0.8938116431236267,0.49232447147369385,-0.09934040158987045
1782891398131102200,6.707102294921875,0.8742855191230774,0.4471453130245209,-0.17066270112991333
1782891398141124400,6.717124267578125,0.8368321657180786,0.3672313094139099,-0.24115312099456787
1782891398151146500,6.727146484375,0.8139214515686035,0.258647620677948,-0.2731155753135681
1782891398161168400,6.73716845703125,0.8153742551803589,0.14191143214702606,-0.2548345625400543
1782891398171190300,6.747190185546875,0.8363009691238403,0.03520902991294861,-0.19129325449466705
1782891398181212400,6.75721240234375,0.8685835003852844,-0.04217870160937309,-0.09731028974056244
1782891398191234300,6.767234375,0.8917434215545654,-0.08024264872074127,-0.00462427968159318
1782891398201256200,6.777256103515625,0.8968167304992676,-0.08833945542573929,0.061482299119234085
1782891398211278300,6.7872783203125,0.8770721554756165,-0.06666070222854614,0.08187907934188843
1782891398221299500,6.797299560546875,0.8474096059799194,-0.03113146498799324,0.06967993825674057
1782891398231321300,6.8073212890625,0.8180076479911804,0.025664478540420532,0.03635215386748314
1782891398241343200,6.81734326171875,0.797173261642456,0.09262620657682419,-0.0010412900010123849
1782891398251365400,6.827365478515625,0.784618616104126,0.15845821797847748,-0.03013634867966175
1782891398261387300,6.83738720703125,0.7910682559013367,0.21949708461761475,-0.03502324968576431
1782891398271409200,6.8474091796875,0.8100632429122925,0.27081993222236633,-0.013326507993042469
1782891398281431600,6.857431640625,0.8347121477127075,0.307454913854599,0.02575085312128067
1782891398291453400,6.867453369140625,0.8594817519187927,0.3424432575702667,0.07972906529903412
1782891398301475300,6.877475341796875,0.8688491582870483,0.3729231357574463,0.14329178631305695
1782891398311497200,6.887497314453125,0.8636267781257629,0.3988547623157501,0.19529524445533752
1782891398321519400,6.897519287109375,0.83619624376297,0.40799790620803833,0.22612427175045013
1782891398331541200,6.907541259765625,0.785038411617279,0.39421606063842773,0.23429442942142487
1782891398341563100,6.917563232421875,0.7239774465560913,0.3594934940338135,0.21959351003170013
1782891398351584500,6.92758447265625,0.6577818989753723,0.3160773515701294,0.19921262562274933
1782891398361606400,6.9376064453125,0.5937262177467346,0.28894665837287903,0.19683441519737244
1782891398371628300,6.947628173828125,0.5441721081733704,0.28946852684020996,0.21022337675094604
1782891398381650200,6.957650146484375,0.5126522183418274,0.30911386013031006,0.24465538561344147
1782891398391672300,6.96767236328125,0.4927312731742859,0.32709136605262756,0.2903013825416565
1782891398401694200,6.977694091796875,0.4888169765472412,0.3330906629562378,0.32821759581565857
1782891398411716000,6.987716064453125,0.4787387251853943,0.33030492067337036,0.35401755571365356
1782891398421738500,6.997738525390625,0.4716922640800476,0.30332258343696594,0.3706306219100952
1782891398431760400,7.007760498046875,0.4680176079273224,0.26481691002845764,0.38403889536857605
1782891398441782500,7.017782470703125,0.4772917926311493,0.23370374739170074,0.39612963795661926
1782891398451804400,7.027804443359375,0.5118206143379211,0.22285491228103638,0.42239177227020264
1782891398461826600,7.03782666015625,0.5720306634902954,0.23628230392932892,0.46312692761421204
1782891398471848400,7.047848388671875,0.6497299075126648,0.26875099539756775,0.5079242587089539
1782891398481870300,7.057870361328125,0.7394347786903381,0.30653512477874756,0.5362645387649536
1782891398491891500,7.067891357421875,0.8361838459968567,0.31422609090805054,0.5265308618545532
1782891398501913600,7.07791357421875,0.926572322845459,0.2856983244419098,0.4629809260368347
1782891398511935500,7.087935546875,1.0140891075134277,0.26717138290405273,0.34702181816101074
1782891398521957400,7.097957275390625,1.0873275995254517,0.2610301375389099,0.17059165239334106
1782891398531979500,7.1079794921875,1.108700156211853,0.25336217880249023,-0.035368021577596664
1782891398542001400,7.11800146484375,1.0407065153121948,0.25203967094421387,-0.23306724429130554
1782891398552023300,7.128023193359375,0.8820310831069946,0.23181428015232086,-0.38534146547317505
1782891398562045400,7.13804541015625,0.6674172878265381,0.14913351833820343,-0.48296284675598145
1782891398572067600,7.148067626953125,0.452008455991745,0.039806801825761795,-0.5109242796897888
1782891398582089500,7.15808935546875,0.3052493631839752,-0.0695338100194931,-0.46949562430381775
1782891398592111400,7.168111328125,0.24189026653766632,-0.17136090993881226,-0.37542733550071716
1782891398602133500,7.178133544921875,0.23687686026096344,-0.2647992670536041,-0.22488683462142944
1782891398612155400,7.1881552734375,0.26476606726646423,-0.31783443689346313,-0.024997727945446968
1782891398622176500,7.198176513671875,0.3288891315460205,-0.32516345381736755,0.19798502326011658
1782891398632198400,7.208198486328125,0.4133945107460022,-0.28214550018310547,0.4217684864997864
1782891398642220500,7.218220458984375,0.5173267126083374,-0.18622241914272308,0.6039462685585022
1782891398652242400,7.228242431640625,0.6305369138717651,-0.05769955739378929,0.704638659954071
1782891398662264300,7.238264404296875,0.7384734749794006,0.09541382640600204,0.7130443453788757
1782891398672286500,7.248286376953125,0.8268195390701294,0.26371273398399353,0.6425715088844299
1782891398682308400,7.258308349609375,0.8959496021270752,0.44131335616111755,0.5140103101730347
1782891398692330200,7.268330322265625,0.951358437538147,0.5856838226318359,0.3391704559326172
1782891398702352600,7.2783525390625,0.9895281791687012,0.6643815636634827,0.1449120193719864
1782891398712374500,7.28837451171875,1.008178472518921,0.6849416494369507,-0.03601393476128578
1782891398722396400,7.298396484375,1.006309986114502,0.6826915740966797,-0.18598026037216187
1782891398732418600,7.30841845703125,0.9959347248077393,0.6554034948348999,-0.2867743968963623
1782891398742440400,7.3184404296875,0.9848253130912781,0.6052143573760986,-0.32341763377189636
1782891398752462300,7.32846240234375,0.9668772220611572,0.5314608216285706,-0.297675758600235
1782891398762483500,7.3384833984375,0.9496932029724121,0.445501446723938,-0.22910070419311523
1782891398772505600,7.348505615234375,0.9370158910751343,0.3495360314846039,-0.13412591814994812
1782891398782527500,7.358527587890625,0.917082667350769,0.2602945566177368,-0.04282928630709648
1782891398792549400,7.36854931640625,0.9065058827400208,0.19528304040431976,0.02014787122607231
1782891398802571500,7.378571533203125,0.8994303941726685,0.17464034259319305,0.05716341361403465
1782891398812593400,7.388593505859375,0.8941313028335571,0.1795525848865509,0.050358183681964874
1782891398822615300,7.398615234375,0.8826453685760498,0.20451998710632324,0.012312262319028378
1782891398832637400,7.408637451171875,0.8755800127983093,0.2285401076078415,-0.052718136459589005
1782891398842659600,7.41865966796875,0.873367190361023,0.2583603262901306,-0.12031769007444382
1782891398852681500,7.428681396484375,0.8739995360374451,0.2760274410247803,-0.18740710616111755
1782891398862703600,7.43870361328125,0.8710588812828064,0.27648499608039856,-0.23904739320278168
1782891398872725500,7.4487255859375,0.8582141399383545,0.2508719563484192,-0.271228164434433
1782891398882747400,7.458747314453125,0.835079550743103,0.2058674544095993,-0.29689598083496094
1782891398892768300,7.468768310546875,0.8074720501899719,0.1411503404378891,-0.31733566522598267
1782891398902790700,7.478790771484375,0.7674593925476074,0.08335255086421967,-0.3498544692993164
1782891398912812500,7.4888125,0.7165071368217468,0.03770747408270836,-0.39332833886146545
1782891398922834400,7.49883447265625,0.6544562578201294,-0.011477116495370865,-0.4528185725212097
1782891398932856600,7.508856689453125,0.6028100252151489,-0.06345163285732269,-0.5273768305778503
1782891398942878500,7.51887841796875,0.5483619570732117,-0.09754222631454468,-0.6013434529304504
1782891398952900400,7.528900390625,0.49283647537231445,-0.11775802075862885,-0.6674017310142517
1782891398962922200,7.538922119140625,0.4422353506088257,-0.11012353003025055,-0.7236215472221375
1782891398972944400,7.5489443359375,0.39201587438583374,-0.08694577217102051,-0.7681635022163391
1782891398982966500,7.558966552734375,0.34419694542884827,-0.06558935344219208,-0.8171488642692566
1782891398992988400,7.568988525390625,0.298699289560318,-0.059755921363830566,-0.8529229164123535
1782891399003010600,7.579010498046875,0.26430243253707886,-0.053194690495729446,-0.8555599451065063
1782891399013032400,7.589032470703125,0.23120853304862976,-0.06879277527332306,-0.8352531790733337
1782891399023054300,7.599054443359375,0.17989768087863922,-0.15324027836322784,-0.8071299195289612
1782891399033075500,7.609075439453125,0.11078609526157379,-0.2833569049835205,-0.7438152432441711
1782891399043097600,7.61909765625,0.02448875457048416,-0.4485141932964325,-0.6370108127593994
1782891399053119500,7.629119384765625,-0.06482262164354324,-0.5798711180686951,-0.4902249574661255
1782891399063141400,7.639141357421875,-0.11811593174934387,-0.6247571110725403,-0.3233685791492462
1782891399073163500,7.64916357421875,-0.12833940982818604,-0.6207283139228821,-0.16793252527713776
1782891399083185400,7.659185302734375,-0.13042627274990082,-0.6174323558807373,-0.07765696197748184
1782891399093207300,7.669207275390625,-0.17526531219482422,-0.6404293179512024,-0.06947552412748337
1782891399103229400,7.6792294921875,-0.26421651244163513,-0.6326696872711182,-0.1365320384502411
1782891399113251300,7.689251220703125,-0.3714122474193573,-0.5898686647415161,-0.26876887679100037
1782891399123273500,7.6992734375,-0.4834676682949066,-0.5118087530136108,-0.44800254702568054
1782891399133295600,7.709295654296875,-0.5983854532241821,-0.442970871925354,-0.656600296497345
1782891399143317500,7.7193173828125,-0.7190199494361877,-0.3918493688106537,-0.8455182909965515
1782891399153339400,7.72933935546875,-0.8229694962501526,-0.3612614572048187,-0.9633604884147644
1782891399163361500,7.739361572265625,-0.8917325735092163,-0.34700316190719604,-0.9861485958099365
1782891399173382400,7.74938232421875,-0.921201229095459,-0.30325043201446533,-0.906092643737793
1782891399183404500,7.759404541015625,-0.9137337803840637,-0.23937316238880157,-0.7382975220680237
1782891399193426400,7.769426513671875,-0.8663538098335266,-0.15563739836215973,-0.4774989187717438
1782891399203448600,7.779448486328125,-0.7969933748245239,-0.019804200157523155,-0.14451588690280914
1782891399213470500,7.789470458984375,-0.7191729545593262,0.1731555312871933,0.18827547132968903
1782891399223492400,7.799492431640625,-0.6230307221412659,0.3672642707824707,0.4751327931880951
1782891399233514500,7.809514404296875,-0.5147749781608582,0.5011626482009888,0.7481765151023865
1782891399243536400,7.819536376953125,-0.42493936419487,0.5736152529716492,0.8754870891571045
1782891399253558300,7.829558349609375,-0.37261146306991577,0.5960265398025513,0.8623643517494202
1782891399263580700,7.83958056640625,-0.3282586336135864,0.5278365612030029,0.7181483507156372
1782891399273602600,7.8496025390625,-0.30321240425109863,0.38851937651634216,0.5002763867378235
1782891399283624400,7.85962451171875,-0.3224310874938965,0.23457881808280945,0.25321388244628906
1782891399293646300,7.869646240234375,-0.41320592164993286,0.07330572605133057,0.01355354581028223
1782891399303667500,7.87966748046875,-0.5704128742218018,-0.10238674283027649,-0.18395286798477173
1782891399313689300,7.889689453125,-0.7676780223846436,-0.2890971899032593,-0.3094167709350586
1782891399323711500,7.89971142578125,-0.9690332412719727,-0.4756487011909485,-0.3615305721759796
1782891399333733600,7.909733642578125,-1.1461169719696045,-0.6376011967658997,-0.33064931631088257
1782891399343755500,7.919755615234375,-1.2876474857330322,-0.7517083287239075,-0.23614439368247986
1782891399353777400,7.92977734375,-1.3901699781417847,-0.8354038000106812,-0.09359994530677795
1782891399363799600,7.939799560546875,-1.4667505025863647,-0.8757852911949158,0.05430163815617561
1782891399373821400,7.949821533203125,-1.507259488105774,-0.8690174221992493,0.17520302534103394
1782891399383843300,7.95984326171875,-1.518822193145752,-0.8364053964614868,0.2349771410226822
1782891399393865500,7.969865478515625,-1.4951192140579224,-0.7538566589355469,0.23785997927188873
1782891399403887600,7.9798876953125,-1.4424054622650146,-0.6354527473449707,0.1909896731376648
1782891399413909500,7.989909423828125,-1.3688839673995972,-0.4867261052131653,0.11749433726072311
1782891399423931400,7.999931396484375,-1.2752575874328613,-0.3220825791358948,0.025742050260305405
1782891399433952500,8.009952392578125,-1.1928211450576782,-0.16255810856819153,-0.07770583033561707
1782891399443974400,8.019974365234376,-1.1181198358535767,-0.020120006054639816,-0.17694321274757385
1782891399453996500,8.02999658203125,-1.0537530183792114,0.07083027064800262,-0.26832062005996704
1782891399464018400,8.040018310546875,-0.9895090460777283,0.09144499897956848,-0.3544382154941559
1782891399474040600,8.05004052734375,-0.9287549257278442,0.042111366987228394,-0.4261421859264374
1782891399484062500,8.0600625,-0.8580484986305237,-0.06207815185189247,-0.4802911877632141
1782891399494084400,8.07008447265625,-0.7693737745285034,-0.17717894911766052,-0.5110501646995544
1782891399504106500,8.0801064453125,-0.6624090075492859,-0.2906179130077362,-0.5134233236312866
1782891399514128400,8.09012841796875,-0.5527603030204773,-0.39764896035194397,-0.4812906086444855
1782891399524150300,8.100150390625,-0.45078468322753906,-0.5052145719528198,-0.4359646737575531
1782891399534172400,8.11017236328125,-0.37283235788345337,-0.6176393032073975,-0.3811083137989044
1782891399544194600,8.120194580078126,-0.3355022966861725,-0.7061145901679993,-0.33827242255210876
1782891399554216400,8.130216552734375,-0.3387197256088257,-0.7656408548355103,-0.30526408553123474
1782891399564237300,8.1402373046875,-0.3741703927516937,-0.808624267578125,-0.2928985059261322
1782891399574259500,8.150259521484376,-0.4293009042739868,-0.823283851146698,-0.2887824773788452
1782891399584281300,8.16028125,-0.48412156105041504,-0.8036867380142212,-0.30390894412994385
1782891399594303500,8.170303466796875,-0.5201114416122437,-0.76976478099823,-0.3474203050136566
1782891399604325600,8.18032568359375,-0.5503686666488647,-0.7660475373268127,-0.4266831576824188
1782891399614347500,8.190347412109375,-0.5838001370429993,-0.7681326270103455,-0.5173496603965759
1782891399624369400,8.200369384765626,-0.6183581352233887,-0.7589372396469116,-0.5943091511726379
1782891399634391600,8.2103916015625,-0.6456615328788757,-0.7628328800201416,-0.6363230347633362
1782891399644413400,8.220413330078125,-0.6549625992774963,-0.762049674987793,-0.5990515351295471
1782891399654435300,8.230435302734374,-0.6299979090690613,-0.7229611277580261,-0.45296749472618103
1782891399664457500,8.24045751953125,-0.6054201126098633,-0.6264575123786926,-0.22406668961048126
1782891399674479400,8.250479248046876,-0.6081161499023438,-0.5078184604644775,-0.04875523969531059
1782891399684501500,8.26050146484375,-0.6349672079086304,-0.4345934987068176,0.06126926466822624
1782891399694522400,8.2705224609375,-0.6981995105743408,-0.4254809319972992,0.10104545205831528
1782891399704544500,8.28054443359375,-0.7729474902153015,-0.4301222860813141,0.011282810010015965
1782891399714566400,8.29056640625,-0.8582703471183777,-0.43537238240242004,-0.16927769780158997
1782891399724588300,8.30058837890625,-0.9686546325683594,-0.4616697430610657,-0.40053755044937134
1782891399734610400,8.3106103515625,-1.1413590908050537,-0.4560772776603699,-0.6174794435501099
1782891399744632600,8.320632568359375,-1.3556849956512451,-0.37753158807754517,-0.8020490407943726
1782891399754654500,8.330654541015624,-1.5441075563430786,-0.24853630363941193,-0.9462895393371582
1782891399764676600,8.340676513671875,-1.6367028951644897,-0.11695955693721771,-1.052402138710022
1782891399774698500,8.350698486328126,-1.6642343997955322,0.049681179225444794,-1.0839372873306274
1782891399784720400,8.360720458984375,-1.6439194679260254,0.24041970074176788,-1.0542778968811035
1782891399794742300,8.3707421875,-1.5518949031829834,0.40305137634277344,-0.9617453813552856
1782891399804764400,8.380764404296874,-1.3871046304702759,0.5583666563034058,-0.8682644367218018
1782891399814786600,8.39078662109375,-1.1617960929870605,0.6722356677055359,-0.7359344363212585
1782891399824808400,8.400808349609376,-0.9004087448120117,0.6506875157356262,-0.582212507724762
1782891399834829600,8.41082958984375,-0.6902077794075012,0.5978711843490601,-0.4213014543056488
1782891399844851500,8.4208515625,-0.5264145731925964,0.4534711241722107,-0.29497388005256653
1782891399854873300,8.430873291015626,-0.4059329032897949,0.2647639811038971,-0.20355182886123657
1782891399864895200,8.440895263671875,-0.3521692752838135,0.09800668060779572,-0.12916281819343567
1782891399874917600,8.450917724609376,-0.3738081753253937,-0.026818742975592613,-0.06538227945566177
1782891399884939500,8.460939453125,-0.46404194831848145,-0.1408020257949829,-0.01844033971428871
1782891399894961400,8.47096142578125,-0.5790247321128845,-0.2604246735572815,0.02728324756026268
1782891399904983600,8.480983642578124,-0.6850014925003052,-0.35953474044799805,0.08084314316511154
1782891399915005400,8.49100537109375,-0.7502294182777405,-0.42916959524154663,0.1565369963645935
1782891399925027300,8.50102734375,-0.7624719738960266,-0.46455129981040955,0.23757299780845642
1782891399935049500,8.511049560546875,-0.7285845875740051,-0.455220103263855,0.3188590705394745
1782891399945071400,8.5210712890625,-0.6764068603515625,-0.3953953981399536,0.39252904057502747
1782891399955093500,8.531093505859374,-0.6052510142326355,-0.28472843766212463,0.45776477456092834
1782891399965114400,8.5411142578125,-0.5045874714851379,-0.1407766044139862,0.5245667099952698
1782891399975136500,8.551136474609375,-0.38098257780075073,0.04253014922142029,0.5927110314369202
1782891399985158400,8.561158447265624,-0.2192663848400116,0.21293704211711884,0.6515993475914001
1782891399995180300,8.57118017578125,-0.08031920343637466,0.4577365219593048,0.6928427815437317
1782891400005202400,8.581202392578126,0.06637144088745117,0.6634505391120911,0.6711057424545288
1782891400015224600,8.591224609375,0.21904878318309784,0.7984057664871216,0.6028409600257874
1782891400025246500,8.60124658203125,0.3723517954349518,0.8826098442077637,0.49513453245162964
1782891400035268600,8.6112685546875,0.4905504286289215,0.9697082042694092,0.37250787019729614
1782891400045290500,8.62129052734375,0.5677533149719238,1.0115910768508911,0.23839664459228516
1782891400055312400,8.6313125,0.627666711807251,0.9548228979110718,0.12492439895868301
1782891400065334500,8.64133447265625,0.646121084690094,0.8480852842330933,0.06818948686122894
1782891400075356400,8.6513564453125,0.6158488392829895,0.7342278361320496,0.08058633655309677
1782891400085378300,8.66137841796875,0.56760573387146,0.6018876433372498,0.15298835933208466
1782891400095400400,8.671400390625,0.527654230594635,0.46556755900382996,0.2571779489517212
1782891400105421600,8.681421630859376,0.5051034092903137,0.34052175283432007,0.37187257409095764
1782891400115443500,8.691443359375,0.5003509521484375,0.25148963928222656,0.4682624936103821
1782891400125465300,8.70146533203125,0.5105524659156799,0.19625890254974365,0.545754611492157
1782891400135487500,8.711487548828124,0.5274936556816101,0.17251673340797424,0.6087031960487366
1782891400145509400,8.72150927734375,0.5503723621368408,0.18606263399124146,0.6556635499000549
1782891400155531500,8.731531494140626,0.5806950926780701,0.20717725157737732,0.6912471055984497
1782891400165553700,8.7415537109375,0.6181309223175049,0.2180597186088562,0.7119446396827698
1782891400175575600,8.751575439453125,0.6468420624732971,0.20949512720108032,0.7170808911323547
1782891400185597400,8.761597412109374,0.6708241105079651,0.15714935958385468,0.7110568284988403
1782891400195619300,8.771619384765625,0.6866966485977173,0.08028045296669006,0.684258759021759
1782891400205641500,8.781641357421876,0.6995596885681152,-0.03202477842569351,0.6346621513366699
1782891400215663400,8.791663330078125,0.694343090057373,-0.1846471130847931,0.5495588779449463
1782891400225685200,8.801685302734375,0.6640504598617554,-0.3629135191440582,0.4352480173110962
1782891400235706600,8.81170654296875,0.6090176701545715,-0.5308580994606018,0.3018997609615326
1782891400245728500,8.821728515625,0.5382899641990662,-0.6822875738143921,0.16938991844654083
1782891400255750400,8.83175048828125,0.46005240082740784,-0.793333113193512,0.05064568668603897
1782891400265772300,8.841772216796874,0.40879347920417786,-0.8148897886276245,-0.03076820820569992
1782891400275794400,8.85179443359375,0.3968035876750946,-0.7579759955406189,-0.09670931100845337
1782891400285816300,8.86181640625,0.38815709948539734,-0.7004685401916504,-0.2084353119134903
1782891400295838500,8.87183837890625,0.3306629955768585,-0.6624177098274231,-0.363635390996933
1782891400305860600,8.881860595703126,0.23824812471866608,-0.5872196555137634,-0.5317248106002808
1782891400315882500,8.891882568359375,0.1301269680261612,-0.47138941287994385,-0.6848099827766418
1782891400325904400,8.901904296875,0.013959077186882496,-0.35728785395622253,-0.8269662857055664
1782891400335926500,8.911926513671874,-0.11085394769906998,-0.2832139730453491,-0.9331606030464172
1782891400345948400,8.921948486328125,-0.24997533857822418,-0.26213425397872925,-0.9646216034889221
1782891400355970300,8.93197021484375,-0.3944171369075775,-0.2686747908592224,-0.9082205295562744
1782891400365991400,8.941991455078124,-0.5061237215995789,-0.2832412123680115,-0.7653709650039673
1782891400376013600,8.952013671875,-0.5486696362495422,-0.26390910148620605,-0.5675792694091797
1782891400386035500,8.962035400390626,-0.518581211566925,-0.1821708232164383,-0.3121240437030792
1782891400396057300,8.972057373046875,-0.4304901957511902,-0.0544620007276535,0.022476831451058388
1782891400406079500,8.98207958984375,-0.304155170917511,0.11861097812652588,0.34079861640930176
1782891400416101400,8.992101318359374,-0.18336078524589539,0.33700668811798096,0.5418773293495178
1782891400426123300,9.002123291015625,-0.07688653469085693,0.5393680334091187,0.601115345954895
1782891400436145700,9.012145751953126,0.013643311336636543,0.6927927136421204,0.5495619177818298
1782891400446166800,9.022166748046875,0.0942622497677803,0.7957896590232849,0.4385073184967041
1782891400456188700,9.032188720703125,0.14435510337352753,0.8717761039733887,0.2908889949321747
1782891400466210600,9.04221044921875,0.18000684678554535,0.8998988270759583,0.15189912915229797
1782891400476232700,9.052232666015625,0.19831539690494537,0.8785845637321472,0.050897300243377686
1782891400486254600,9.062254638671876,0.19189850986003876,0.8197409510612488,0.00423499196767807
1782891400496275700,9.072275634765624,0.16428817808628082,0.7181664109230042,-0.0025307536125183105
1782891400506297600,9.082297607421875,0.12499935925006866,0.5743301510810852,0.015519619919359684
1782891400516319700,9.09231982421875,0.09345260262489319,0.3907366693019867,0.048925526440143585
1782891400526341600,9.102341552734375,0.07496573776006699,0.19278578460216522,0.09651248902082443
1782891400536363500,9.112363525390625,0.07433854043483734,0.004490267485380173,0.15904219448566437
1782891400546385700,9.1223857421875,0.09369546175003052,-0.15406368672847748,0.21721309423446655
1782891400556407800,9.13240771484375,0.12280146032571793,-0.2828887104988098,0.2297661155462265
1782891400566429700,9.1424296875,0.1650727540254593,-0.3702518343925476,0.19016703963279724
1782891400576451800,9.152451904296875,0.21991066634655,-0.4182480275630951,0.09334758669137955
1782891400586473700,9.1624736328125,0.2783588171005249,-0.4148296117782593,-0.029108554124832153
1782891400596495600,9.17249560546875,0.3294258415699005,-0.36279746890068054,-0.15131233632564545
1782891400606517800,9.182517822265625,0.36160799860954285,-0.27267131209373474,-0.2561708390712738
1782891400616539600,9.19253955078125,0.370149701833725,-0.17618799209594727,-0.3268808424472809
1782891400626560800,9.202560791015625,0.37308478355407715,-0.09308138489723206,-0.3568805456161499
1782891400636582700,9.212582763671875,0.3725621700286865,-0.025135047733783722,-0.34230315685272217
1782891400646604800,9.222604736328124,0.38218551874160767,0.021111544221639633,-0.29311323165893555
1782891400656626700,9.232626708984375,0.39565685391426086,0.01637493073940277,-0.23302990198135376
1782891400666648600,9.242648681640626,0.40972498059272766,-0.04566100984811783,-0.16770201921463013
1782891400676670700,9.252670654296875,0.4164466857910156,-0.11986017972230911,-0.10860022902488708
1782891400686692600,9.262692626953125,0.41774576902389526,-0.18860755860805511,-0.05584407225251198
1782891400696714800,9.27271484375,0.41857147216796875,-0.24065420031547546,-0.011747309006750584
1782891400706737000,9.28273681640625,0.41290268301963806,-0.2588241398334503,0.03114103525876999
1782891400716758800,9.2927587890625,0.4091586768627167,-0.23993954062461853,0.07838480919599533
1782891400726780700,9.30278076171875,0.4119888246059418,-0.17497678101062775,0.13527712225914001
1782891400736802800,9.312802734375,0.4288078844547272,-0.08450587093830109,0.1743551790714264
1782891400746824700,9.32282470703125,0.445933073759079,-0.0026799854822456837,0.1864350140094757
1782891400756846600,9.3328466796875,0.4632677435874939,0.055187176913022995,0.16649842262268066
1782891400766867700,9.34286767578125,0.46962255239486694,0.1124613881111145,0.14640487730503082
1782891400776889900,9.352889892578125,0.473995178937912,0.1788964718580246,0.13345421850681305
1782891400786911700,9.362911865234375,0.47648951411247253,0.24413326382637024,0.12334885448217392
1782891400796933600,9.37293359375,0.47403889894485474,0.3062356412410736,0.09465353190898895
1782891400806955800,9.382955810546875,0.4785793125629425,0.3753390610218048,0.061505697667598724
1782891400816977700,9.392977783203126,0.4859141707420349,0.43572351336479187,0.03379102051258087
1782891400826999600,9.40299951171875,0.5013929605484009,0.48527801036834717,0.02992064692080021
1782891400837021700,9.413021728515625,0.5215014815330505,0.5218507051467896,0.04904128983616829
1782891400847043800,9.4230439453125,0.5477602481842041,0.5499358773231506,0.0960061326622963
1782891400857065700,9.433065673828125,0.6036311984062195,0.603190004825592,0.17631623148918152
1782891400867087600,9.443087646484376,0.6905796527862549,0.748740017414093,0.26361462473869324
1782891400877109800,9.45310986328125,0.7876307368278503,0.9947624802589417,0.28070372343063354
1782891400887131600,9.463131591796875,0.8994885683059692,1.2727874517440796,0.17544041574001312
1782891400897153500,9.473153564453124,1.0059109926223755,1.5296112298965454,-0.06428684294223785
1782891400907174700,9.483174560546875,1.0813586711883545,1.7905058860778809,-0.4017311930656433
1782891400917196800,9.49319677734375,1.1200711727142334,1.9764972925186157,-0.8119357824325562
1782891400927218700,9.50321875,1.0947773456573486,2.0155999660491943,-1.1927589178085327
1782891400937240600,9.513240478515625,0.9937213063240051,1.8882944583892822,-1.427290678024292
1782891400947262700,9.5232626953125,0.8520936369895935,1.5734927654266357,-1.4643408060073853
1782891400957284600,9.53328466796875,0.7409605383872986,1.1580835580825806,-1.3159160614013672
1782891400967306500,9.543306396484375,0.7444205284118652,0.6930011510848999,-0.9786996841430664
1782891400977329000,9.553328857421874,0.8564720749855042,0.25947389006614685,-0.5001371502876282
1782891400987350800,9.563350830078125,1.051437497138977,-0.07942584902048111,0.06246600300073624
1782891400997372700,9.57337255859375,1.304364800453186,-0.3186526894569397,0.6178416609764099
1782891401007394800,9.583394775390625,1.5837596654891968,-0.47512751817703247,1.0586915016174316
1782891401017416700,9.593416748046875,1.8524397611618042,-0.549481987953186,1.3450586795806885
1782891401027437600,9.6034375,2.0872786045074463,-0.5293983221054077,1.4887009859085083
1782891401037459700,9.613459716796875,2.2643699645996094,-0.38961008191108704,1.5176382064819336
1782891401047481900,9.62348193359375,2.385136842727661,-0.17921102046966553,1.4247097969055176
1782891401057503700,9.633503662109375,2.456340789794922,0.02657395228743553,1.2424017190933228
1782891401067525600,9.643525634765625,2.4648032188415527,0.21485598385334015,1.0220835208892822
1782891401077547800,9.6535478515625,2.4236536026000977,0.3807573914527893,0.8127960562705994
1782891401087569700,9.663569580078125,2.3405275344848633,0.5144789218902588,0.6655434370040894
1782891401097591600,9.673591552734376,2.218506336212158,0.6137228012084961,0.5762726664543152
1782891401107613700,9.68361376953125,2.085085868835449,0.6828044056892395,0.5378813147544861
1782891401117635800,9.6936357421875,1.9598296880722046,0.7155704498291016,0.5370244383811951
1782891401127657700,9.70365771484375,1.8593978881835938,0.7160857915878296,0.5517796874046326
1782891401137680000,9.713679931640625,1.768701434135437,0.688725471496582,0.5682532787322998
1782891401147701800,9.72370166015625,1.696686863899231,0.6404802203178406,0.5855582356452942
1782891401157722600,9.73372265625,1.6386888027191162,0.5801445245742798,0.6054688096046448
1782891401167744500,9.74374462890625,1.5871814489364624,0.5161663293838501,0.6195833086967468
1782891401177767000,9.753766845703124,1.5403162240982056,0.45413675904273987,0.6340149641036987
1782891401187788800,9.763788818359375,1.4924533367156982,0.4055974781513214,0.639146625995636
1782891401197810700,9.773810791015626,1.4523413181304932,0.3728828430175781,0.6301515698432922
1782891401207832800,9.783832763671874,1.4168150424957275,0.35293176770210266,0.5877276659011841
1782891401217854700,9.793854736328125,1.3823792934417725,0.33040404319763184,0.5165127515792847
1782891401227876600,9.803876708984374,1.3578433990478516,0.2725362181663513,0.4259921908378601
1782891401237898500,9.8138984375,1.3172621726989746,0.19693876802921295,0.3224496841430664
1782891401247920600,9.823920654296876,1.2688363790512085,0.09999889880418777,0.20865973830223083
1782891401257942800,9.83394287109375,1.2064722776412964,-0.009020084515213966,0.09499899297952652
1782891401267964700,9.843964599609375,1.1296305656433105,-0.12000465393066406,-0.0018399297259747982
1782891401277986800,9.85398681640625,1.0257877111434937,-0.20916248857975006,-0.0785062164068222
1782891401288007700,9.864007568359375,0.9083612561225891,-0.2608485817909241,-0.13177768886089325
1782891401298029600,9.874029541015625,0.7878530025482178,-0.249762162566185,-0.1323513388633728
1782891401308051700,9.8840517578125,0.6695337891578674,-0.19189167022705078,-0.09204520285129547
1782891401318073900,9.894073974609375,0.5621903538703918,-0.12892651557922363,-0.02424783818423748
1782891401328095700,9.904095703125,0.4729347825050354,-0.08469939976930618,0.050213344395160675
1782891401338117600,9.91411767578125,0.4136779308319092,-0.03930626064538956,0.13326549530029297
1782891401348139800,9.924139892578125,0.38746178150177,0.013041101396083832,0.1983851194381714
1782891401358161700,9.93416162109375,0.39031606912612915,0.08058836311101913,0.2273082286119461
1782891401368183600,9.94418359375,0.3946245312690735,0.15808874368667603,0.20662958920001984
1782891401378205700,9.954205810546876,0.37753909826278687,0.2228393852710724,0.14120759069919586
1782891401388227600,9.9642275390625,0.33974483609199524,0.2610887587070465,0.048065945506095886
1782891401398249700,9.974249755859375,0.278604656457901,0.277679443359375,-0.03763177990913391
1782891401408272000,9.98427197265625,0.20693686604499817,0.2834816873073578,-0.09356854856014252
1782891401418293800,9.994293701171875,0.14210514724254608,0.2817135751247406,-0.09750205278396606
1782891401428314600,10.004314697265626,0.10231911391019821,0.3176731765270233,-0.03944513946771622
1782891401438336500,10.01433642578125,0.10556347668170929,0.3999399244785309,0.05404236912727356
1782891401448358700,10.024358642578125,0.11251193284988403,0.5062077641487122,0.13050438463687897
1782891401458381000,10.034381103515624,0.07833543419837952,0.6259660124778748,0.1429811716079712
1782891401468403000,10.04440283203125,0.004064131062477827,0.7683542966842651,0.054282475262880325
1782891401478424800,10.0544248046875,-0.10339859127998352,0.933573842048645,-0.14590689539909363
1782891401488446700,10.06444677734375,-0.21674859523773193,1.073907732963562,-0.4324624836444855
1782891401498468900,10.07446875,-0.3620605170726776,1.1519449949264526,-0.7704706788063049
1782891401508490800,10.08449072265625,-0.5299792289733887,1.1271411180496216,-1.0668312311172485
1782891401518512600,10.0945126953125,-0.7044097185134888,1.0065523386001587,-1.2326107025146484
1782891401528534800,10.10453466796875,-0.8392298221588135,0.814298152923584,-1.2527306079864502
1782891401538557000,10.114556884765625,-0.9058598875999451,0.5740513801574707,-1.1397393941879272
1782891401548577800,10.124577880859375,-0.8956690430641174,0.3258167803287506,-0.8901477456092834
1782891401558599700,10.134599609375,-0.8179194927215576,0.14880825579166412,-0.5267465710639954
1782891401568621800,10.144621826171875,-0.6685459613800049,0.03901571035385132,-0.10890725255012512
1782891401578643700,10.154643798828126,-0.49580150842666626,-0.005012692883610725,0.29426008462905884
1782891401588665600,10.16466552734375,-0.3328392207622528,-0.013704451732337475,0.6009669899940491
1782891401598688000,10.17468798828125,-0.20946048200130463,-0.002304523251950741,0.760666012763977
1782891401608710000,10.1847099609375,-0.1189684048295021,0.038864750415086746,0.7952224016189575
1782891401618731800,10.194731689453125,-0.05006903409957886,0.11364977806806564,0.7396101355552673
1782891401628754000,10.20475390625,-0.007944482378661633,0.19469723105430603,0.6178860664367676
1782891401638775800,10.21477587890625,0.017168115824460983,0.23568971455097198,0.47015807032585144
1782891401648797700,10.224797607421875,0.010219929739832878,0.2170715481042862,0.30315709114074707
1782891401658819800,10.23481982421875,-0.0398695170879364,0.14352938532829285,0.14270450174808502
1782891401668841700,10.244841796875,-0.1319190114736557,0.017489690333604813,-0.002533124992623925
1782891401678862800,10.25486279296875,-0.2639271318912506,-0.16271492838859558,-0.12323928624391556
1782891401688884700,10.264884765625,-0.41723012924194336,-0.34956735372543335,-0.2008563131093979
1782891401698907000,10.274906982421875,-0.5652173161506653,-0.5014049410820007,-0.2199380248785019
1782891401708928800,10.2849287109375,-0.6772232055664062,-0.6028575301170349,-0.19411681592464447
1782891401718950700,10.29495068359375,-0.7507140636444092,-0.6561439037322998,-0.14098288118839264
1782891401728972800,10.304972900390625,-0.791146993637085,-0.6652713418006897,-0.07974855601787567
1782891401738995000,10.314994873046874,-0.8188164234161377,-0.6445850729942322,-0.02425788715481758
1782891401749016800,10.325016845703125,-0.8329240083694458,-0.5883963704109192,0.002393164671957493
1782891401759039000,10.3350390625,-0.8294937610626221,-0.5212270617485046,0.00923579279333353
1782891401769060900,10.345060791015625,-0.8078089356422424,-0.43172702193260193,0.0031978737097233534
1782891401779082800,10.355082763671875,-0.7752882242202759,-0.30739834904670715,-0.007611686829477549
1782891401789105000,10.36510498046875,-0.7390937209129333,-0.16842767596244812,-0.020346390083432198
1782891401799126800,10.375126708984375,-0.7119603753089905,-0.04305142164230347,-0.0511607751250267
1782891401809148700,10.385148681640626,-0.6891906261444092,0.062016408890485764,-0.09352527558803558
1782891401819169800,10.395169677734375,-0.6747880578041077,0.13575175404548645,-0.14031532406806946
1782891401829192000,10.40519189453125,-0.6732482314109802,0.17033396661281586,-0.20081621408462524
1782891401839213800,10.4152138671875,-0.6760299801826477,0.14400418102741241,-0.2628363370895386
1782891401849235700,10.425235595703125,-0.6940031051635742,0.06888918578624725,-0.31862691044807434
1782891401859257900,10.4352578125,-0.7164754867553711,-0.032629672437906265,-0.3471634089946747
1782891401869279700,10.44527978515625,-0.736068606376648,-0.14260436594486237,-0.3533374071121216
1782891401879302000,10.455302001953125,-0.7394812107086182,-0.23340865969657898,-0.32790499925613403
1782891401889323800,10.46532373046875,-0.7225483059883118,-0.2730213403701782,-0.2737051248550415
1782891401899346000,10.475345947265625,-0.6882133483886719,-0.26021021604537964,-0.22397637367248535
1782891401909367800,10.485367919921876,-0.6450227499008179,-0.20097748935222626,-0.20866772532463074
1782891401919389700,10.4953896484375,-0.5965539216995239,-0.12235365062952042,-0.23536042869091034
1782891401929411800,10.505411865234375,-0.5563742518424988,-0.020680824294686317,-0.29165565967559814
1782891401939433700,10.515433837890624,-0.5186417102813721,0.09888161718845367,-0.3803778290748596
1782891401949454800,10.525454833984375,-0.4704909920692444,0.20881077647209167,-0.4733455777168274
1782891401959476700,10.535476806640625,-0.43004244565963745,0.30335286259651184,-0.5737253427505493
1782891401969499000,10.545498779296874,-0.3885192573070526,0.3453682065010071,-0.6562716364860535
1782891401979520800,10.555520751953125,-0.3611309230327606,0.31565672159194946,-0.6886318922042847
1782891401989542700,10.565542724609376,-0.3645536005496979,0.16989392042160034,-0.6332269310951233
1782891401999564800,10.575564697265625,-0.41055604815483093,-0.07917533814907074,-0.4650871157646179
1782891402009586700,10.585586669921875,-0.4514022767543793,-0.3821812868118286,-0.14597997069358826
1782891402019608800,10.59560888671875,-0.4408451020717621,-0.6421156525611877,0.30142855644226074
1782891402029631000,10.605630859375,-0.36164188385009766,-0.7699436545372009,0.8253016471862793
1782891402039652900,10.61565283203125,-0.24728703498840332,-0.7643640637397766,1.2963032722473145
1782891402049674800,10.6256748046875,-0.13089704513549805,-0.7234928011894226,1.5673208236694336
1782891402059697000,10.63569677734375,-0.04404231160879135,-0.6778331398963928,1.583631157875061
1782891402069718800,10.64571875,0.020441871136426926,-0.7312952876091003,1.3379452228546143
1782891402079740000,10.655739990234375,0.037390466779470444,-0.9254782199859619,0.889524519443512
1782891402089761800,10.66576171875,-0.02087284065783024,-1.1623820066452026,0.40223875641822815
1782891402099784000,10.675783935546875,-0.16323362290859222,-1.306486964225769,0.0300627201795578
1782891402109805800,10.685805908203125,-0.3422832489013672,-1.398837924003601,-0.17711709439754486
1782891402119827700,10.69582763671875,-0.4996449649333954,-1.4606401920318604,-0.2171848714351654
1782891402129849900,10.705849853515625,-0.5989800095558167,-1.4839279651641846,-0.10567326098680496
1782891402139871700,10.715871826171876,-0.6138770580291748,-1.4883838891983032,0.10482942312955856
1782891402149894000,10.725893798828125,-0.5665518641471863,-1.3048361539840698,0.42399197816848755
1782891402159916000,10.735916015625,-0.4645243287086487,-0.896970808506012,0.7867614030838013
1782891402169938000,10.74593798828125,-0.31043460965156555,-0.3571510314941406,1.1040533781051636
1782891402179959800,10.755959716796875,-0.1081000417470932,0.1805422604084015,1.284332275390625
1782891402189982000,10.76598193359375,0.10931030660867691,0.6073271632194519,1.2771539688110352
1782891402200003800,10.77600390625,0.30513063073158264,0.8857768177986145,1.1180002689361572
1782891402210025000,10.78602490234375,0.4263579845428467,0.9741535782814026,0.8418384194374084
1782891402220046800,10.796046875,0.43295663595199585,0.8595151305198669,0.49410194158554077
1782891402230069000,10.806069091796875,0.318179190158844,0.6189326047897339,0.1393933892250061
1782891402240091000,10.8160908203125,0.09813794493675232,0.329456627368927,-0.15034927427768707
1782891402250112800,10.82611279296875,-0.1963413655757904,0.04952139034867287,-0.3628807067871094
1782891402260135000,10.836135009765625,-0.49853160977363586,-0.24579551815986633,-0.5052204728126526
1782891402270156800,10.84615673828125,-0.7991191744804382,-0.5539698600769043,-0.576093316078186
1782891402280178700,10.8561787109375,-1.1135773658752441,-0.9303725957870483,-0.6390330791473389
1782891402290200800,10.866200927734376,-1.4173990488052368,-1.3024611473083496,-0.6962302923202515
1782891402300223000,10.876222900390625,-1.6794410943984985,-1.5199397802352905,-0.7091898322105408
1782891402310244900,10.886244873046875,-1.8275173902511597,-1.3617091178894043,-0.5597273707389832
1782891402320266800,10.896266845703124,-2.026998281478882,-1.1247661113739014,-0.4207492470741272
1782891402330289000,10.906288818359375,-2.2548916339874268,-1.129051685333252,-0.38571813702583313
1782891402340309800,10.916309814453125,-2.4062352180480957,-1.2728264331817627,-0.43954530358314514
1782891402350332000,10.926331787109374,-2.473177909851074,-1.396238923072815,-0.5071880221366882
1782891402360354000,10.93635400390625,-2.5306601524353027,-1.3129886388778687,-0.5717568397521973
1782891402370376000,10.9463759765625,-2.584313154220581,-1.1987664699554443,-0.5624579191207886
1782891402380397800,10.956397705078125,-2.548006296157837,-1.1731585264205933,-0.4684498608112335
1782891402390419700,10.966419677734375,-2.4165468215942383,-1.1095448732376099,-0.34445416927337646
1782891402400441900,10.97644189453125,-2.2520699501037598,-0.873542845249176,-0.20135734975337982
1782891402410463700,10.986463623046875,-2.0808510780334473,-0.5239436030387878,-0.05692267790436745
1782891402420485600,10.996485595703126,-1.9456493854522705,-0.22570587694644928,0.08167218416929245
1782891402430507800,11.0065078125,-1.9278879165649414,0.05853117257356644,0.2570085823535919
1782891402440530000,11.016530029296876,-1.9812325239181519,0.4145556092262268,0.4549136161804199
1782891402450552300,11.02655224609375,-2.0618274211883545,0.9267757534980774,0.6243889331817627
1782891402460574200,11.03657421875,-2.1218881607055664,1.4586447477340698,0.727255642414093
1782891402470595000,11.046594970703126,-2.0079803466796875,2.1972062587738037,0.7631174921989441
1782891402480617200,11.0566171875,-1.7971925735473633,3.0744545459747314,0.7154492139816284
1782891402490639000,11.06663916015625,-1.6320945024490356,2.722214937210083,0.501107394695282
1782891402500661200,11.0766611328125,-1.4925702810287476,1.19056236743927,0.0688541829586029
1782891402510683400,11.086683349609375,-1.247151494026184,0.21084930002689362,-0.1823362410068512
1782891402520705300,11.096705322265626,-1.0656943321228027,0.2347049117088318,-0.2119571566581726
1782891402530727200,11.10672705078125,-1.0248478651046753,0.5449629426002502,-0.18144533038139343
1782891402540749300,11.116749267578125,-1.0212805271148682,0.8402982950210571,-0.12186912447214127
1782891402550771200,11.126771240234374,-0.9408243894577026,1.138908863067627,0.023324020206928253
1782891402560793000,11.13679296875,-0.7897498607635498,1.265400767326355,0.1921689808368683
1782891402570815000,11.14681494140625,-0.6603437066078186,1.1221815347671509,0.318203866481781
1782891402580837400,11.15683740234375,-0.5099239349365234,0.9182268381118774,0.4130418300628662
1782891402590859300,11.166859375,-0.4476717710494995,0.8167228698730469,0.4798696041107178
1782891402600880000,11.176880126953124,-0.4237467348575592,0.768121063709259,0.5176233649253845
1782891402610902300,11.18690234375,-0.4222790598869324,0.7617547512054443,0.5238831639289856
1782891402620924200,11.196924072265626,-0.4636845588684082,0.7362959980964661,0.475142240524292
1782891402630946000,11.206946044921875,-0.5542142391204834,0.6232908964157104,0.3481765687465668
1782891402640968200,11.21696826171875,-0.7115893959999084,0.3932707607746124,0.13697929680347443
1782891402650990300,11.226990234375,-0.8710024952888489,0.09180599451065063,-0.10167720913887024
1782891402661012200,11.23701220703125,-0.9995192885398865,-0.2464684098958969,-0.3262891173362732
1782891402671034000,11.2470341796875,-1.086753487586975,-0.49004217982292175,-0.5169906616210938
1782891402681056300,11.25705615234375,-1.1248667240142822,-0.596424400806427,-0.6448814272880554
1782891402691078100,11.267078125,-1.0956076383590698,-0.5922224521636963,-0.7060204148292542
1782891402701100000,11.27710009765625,-1.016681432723999,-0.4810190200805664,-0.6899645924568176
1782891402711122200,11.2871220703125,-0.9126712083816528,-0.2886818051338196,-0.5927112698554993
1782891402721144300,11.297144287109376,-0.8100494742393494,-0.08697360008955002,-0.4383092224597931
1782891402731165200,11.307165283203124,-0.7346604466438293,0.033255863934755325,-0.2912100553512573
1782891402741187000,11.31718701171875,-0.6820993423461914,0.05339038744568825,-0.15617674589157104
1782891402751209200,11.327209228515626,-0.6591314077377319,0.0646747350692749,0.0070103127509355545
1782891402761231000,11.337231201171875,-0.7040168046951294,0.045593757182359695,0.16264905035495758
1782891402771253000,11.3472529296875,-0.8032243251800537,-0.05939710512757301,0.2577414810657501
1782891402781275400,11.357275390625,-0.9067366123199463,-0.20050397515296936,0.32905057072639465
1782891402791297300,11.36729736328125,-0.9995844960212708,-0.35865873098373413,0.3791515529155731
1782891402801319200,11.377319091796876,-1.0827997922897339,-0.5320205688476562,0.41134920716285706
1782891402811341300,11.38734130859375,-1.1464842557907104,-0.6817538738250732,0.4303188920021057
1782891402821363200,11.39736328125,-1.1833908557891846,-0.7703191637992859,0.41918548941612244
1782891402831385000,11.407385009765624,-1.2019323110580444,-0.7617030143737793,0.39807382225990295
1782891402841407200,11.4174072265625,-1.2627815008163452,-0.6908425688743591,0.4853416383266449
1782891402851429000,11.42742919921875,-1.3218804597854614,-0.7184246182441711,0.6161494851112366
1782891402861450200,11.4374501953125,-1.3490544557571411,-0.7562485337257385,0.7373886704444885
1782891402871472000,11.44747216796875,-1.3383724689483643,-0.7810745239257812,0.8140482902526855
1782891402881494300,11.457494384765624,-1.3008712530136108,-0.7536614537239075,0.8279034495353699
1782891402891516200,11.46751611328125,-1.2617267370224,-0.658223569393158,0.7681831121444702
1782891402901538000,11.4775380859375,-1.2170383930206299,-0.5574808716773987,0.6790575981140137
1782891402911560200,11.487560302734375,-1.167731523513794,-0.513982892036438,0.5675140619277954
1782891402921582300,11.497582275390625,-1.091752290725708,-0.5608459711074829,0.4232729375362396
1782891402931604200,11.507604248046874,-0.9760725498199463,-0.6435920000076294,0.26976513862609863
1782891402941626400,11.51762646484375,-0.8467665314674377,-0.7268770933151245,0.13505399227142334
1782891402951648300,11.527648193359376,-0.7727413177490234,-0.7890453934669495,0.049085285514593124
1782891402961670100,11.537670166015625,-0.7283221483230591,-0.786655068397522,0.024627842009067535
