time,seconds_elapsed,z,y,x
1782891174020533200,0.077533203125,0.20175532900989054,0.870441064287722,1.938451696333289
1782891174030555100,0.08755517578125,0.0759954444438219,0.6211813490420579,1.5394278283387421
1782891174040577500,0.09757763671875,0.22478139981031417,0.4896756143003702,1.0417600462406873
1782891174050599400,0.107599365234375,0.15892974824011324,0.2989022825539112,0.5786942064464092
1782891174060621300,0.117621337890625,-0.2545008307695389,0.12450140893757343,0.15262451061606405
1782891174070643500,0.1276435546875,-0.6092611941456795,0.14697101489901543,-0.3451046462804079
1782891174080665300,0.137665283203125,-0.6744535050243139,0.40677813538312907,-1.068297924554348
1782891174090687200,0.147687255859375,-0.9396768053382635,0.3600754209190607,-1.5213316151559353
1782891174100709000,0.157709228515625,-1.3395464765071867,0.24342706356942653,-1.5922294441998004
1782891174110731300,0.167731201171875,-1.7785510572344063,0.3371212463110685,-1.5762965465307235
1782891174120753400,0.17775341796875,-2.4180966227456926,0.17222236053347587,-1.6051239970862865
1782891174130775300,0.187775390625,-2.505398181840777,0.16654723750650882,-1.3098784834742545
1782891174140797400,0.19779736328125,-1.7201187420099973,0.3321358591139316,-1.0451444279819726
1782891174150819300,0.2078193359375,-0.4477440597608685,0.0006558335602283477,-1.323773737835884
1782891174160841200,0.21784130859375,1.3079858015954493,-1.2436276034533977,-1.905799134531617
1782891174170863400,0.22786328125,2.2331723092883826,-1.941404116398096,-2.7755922563046216
1782891174180885200,0.23788525390625,2.0562614986777303,-1.7013766321390866,-3.334802594602108
1782891174190907100,0.2479072265625,1.6544050376057624,-1.2185633048236368,-2.3094097457945346
1782891174200930300,0.257930419921875,1.3454557005509733,-0.73557695902884,-1.23226508243978
1782891174210952200,0.2679521484375,1.216317863984406,-0.4015267907261848,-1.3342191440045832
1782891174220974000,0.27797412109375,1.1576321585208176,-0.6072288115352392,-1.7526514768242836
1782891174230996000,0.287995849609375,1.2747767749547958,-0.8996931699961424,-1.9925825149714946
1782891174241018000,0.29801806640625,1.2864049611672759,-0.8009872965723276,-2.2903753749787805
1782891174251040000,0.3080400390625,0.984006945452094,-0.6263648891597986,-2.132805809175968
1782891174261062000,0.318061767578125,0.6037108665421604,-0.43971769743263717,-1.4902467410624027
1782891174271083800,0.328083740234375,0.19575433502942322,-0.20027648862898348,-0.9254214854925871
1782891174281106000,0.33810595703125,-0.3226633896306157,0.08527765205204486,-0.45859892351329323
1782891174291127800,0.3481279296875,-0.8156807155743241,0.32734336414039134,-0.15122224260270595
1782891174301150000,0.35814990234375,-1.2735203451529145,0.43755379739701744,-0.06970657343268394
1782891174311172000,0.368172119140625,-1.5908157780095933,0.3422480878055095,0.03619885610640049
1782891174321194000,0.378194091796875,-1.6266186205357311,0.2506961777895689,0.10528174468278884
1782891174331216000,0.3882158203125,-1.3221274319335818,0.13625672866106034,0.19671032058000562
1782891174341238000,0.398238037109375,-0.7441428350612521,0.057179100292921066,0.26049977892339227
1782891174351260000,0.408260009765625,-0.12928601286560296,-0.09064180943369865,0.17796411905586718
1782891174361281800,0.41828173828125,0.3524982636630535,-0.18408289419710636,0.019122633621096608
1782891174371304000,0.428303955078125,0.582333147470653,-0.2254115144073963,0.02259703173339367
1782891174381326000,0.438326171875,0.5363134468346834,-0.3219721924960613,0.06313479382693767
1782891174391348000,0.448347900390625,0.31107056699246166,-0.3422644544184208,0.06244038182199001
1782891174401371000,0.458370849609375,0.06558627863228321,-0.32995617698729035,0.04318038555681705
1782891174411393000,0.46839306640625,-0.11604600754231213,-0.3264648277401924,0.02769990783035755
1782891174421415000,0.478414794921875,-0.22499387351721523,-0.2777133640527725,0.0709153647005558
1782891174431437000,0.48843701171875,-0.29373773939758535,-0.20498539697229862,0.13178922785818575
1782891174441459000,0.498458984375,-0.2912365702316165,-0.16716040096879003,0.15651041213870048
1782891174451480800,0.508480712890625,-0.1998337132975459,-0.1555336760610342,0.08667699745595454
1782891174461503000,0.5185029296875,-0.1113809383407235,-0.16345277862250804,-0.0910363617092371
1782891174471524900,0.52852490234375,-0.05316343491077423,-0.19251871410906313,-0.19242402156293392
1782891174481546800,0.538546630859375,-0.05225362658947706,-0.22480302712023256,-0.29946693069934843
1782891174491569200,0.548569091796875,0.05967062484771013,-0.2809282344460487,-0.4090472493588924
1782891174501591000,0.558591064453125,0.26605244461447,-0.3161374949932098,-0.49141456692218777
1782891174511613000,0.568613037109375,0.4504714388981461,-0.3277279795438051,-0.463767266061902
1782891174521635000,0.578635009765625,0.5298416204720735,-0.3100549602091312,-0.38178339485824103
1782891174531657000,0.588656982421875,0.6107511404424906,-0.1932826842188835,-0.22203356240689753
1782891174541678800,0.598678955078125,0.610772767752409,-0.10042670586705207,-0.09202303465902804
1782891174551700700,0.60870068359375,0.44260815817713733,-0.10336918905973434,-0.04539221638739109
1782891174561723000,0.618722900390625,0.19720453383773565,-0.10864800624549388,-0.07646013934612274
1782891174571745000,0.6287451171875,0.03401946624070406,-0.1071393552482128,-0.1386848325908184
1782891174581767000,0.638766845703125,0.00521715012639761,-0.16365385415256023,-0.19399054022729395
1782891174591789000,0.6487890625,0.03239303408265114,-0.23830256016254422,-0.23806115262210367
1782891174601812000,0.65881201171875,0.052715691143274304,-0.24736732562780378,-0.1985720227986574
1782891174611834000,0.668834228515625,0.0809843387722969,-0.2484767481744289,-0.17432313220500945
1782891174621856000,0.67885595703125,0.0937745545014739,-0.24672142893970012,-0.12925415642261504
1782891174631878000,0.6888779296875,0.08032704390734434,-0.22625147236287593,-0.0577221211284399
1782891174641899800,0.698899658203125,0.04103723604828119,-0.2040320417702198,-0.022187281888723372
1782891174651922000,0.708921875,0.001187163957953453,-0.16864216395914552,0.03309738295972347
1782891174661943800,0.71894384765625,-0.05166092139333486,-0.17227496750354765,0.039837504869699475
1782891174671966000,0.728966064453125,-0.07609276733845471,-0.18059329851567743,-0.013895254361629486
1782891174681988000,0.738988037109375,-0.10615005194991826,-0.17618775703310965,-0.11943711128532886
1782891174692010000,0.749010009765625,-0.11833002682626247,-0.2130067908644676,-0.14744564667344093
1782891174702032000,0.759031982421875,-0.11347177314013242,-0.23632395356595515,-0.1824994243979454
1782891174712054000,0.769053955078125,-0.12401976290047168,-0.2563549342036247,-0.19629238742887972
1782891174722076000,0.779075927734375,-0.11487754828482866,-0.24531331570744513,-0.1466010125428438
1782891174732097800,0.789097900390625,-0.0812394825771451,-0.24220658186376093,-0.07578793917298317
1782891174742120000,0.799119873046875,-0.011298808127641677,-0.21304244669973849,-0.08277648288607597
1782891174752142000,0.80914208984375,0.01958674400150776,-0.2008949127882719,-0.09547931259274482
1782891174762164000,0.8191640625,-0.05807195747941732,-0.21398528050780294,-0.11899755082428455
1782891174772186000,0.82918603515625,-0.1716433916017413,-0.25138065292239187,-0.14972002134621143
1782891174782208000,0.8392080078125,-0.2708282807141542,-0.2545201199918985,-0.16390286047756672
1782891174792231000,0.84923095703125,-0.26251813300848004,-0.22604162900447844,-0.12069324882626532
1782891174802253000,0.859253173828125,-0.21865473362356422,-0.1674362953007221,-0.06599661299884318
1782891174812275000,0.86927490234375,-0.1581336294263601,-0.14302198501229285,0.0196808520257473
1782891174822296800,0.879296875,-0.10603051722347735,-0.1560515624552965,0.028211949005723
1782891174832319000,0.889319091796875,-0.05679799202084541,-0.17650222980976105,-0.02077741509079933
1782891174842340900,0.8993408203125,0.009048983374238014,-0.20711773282587528,-0.08475158235132693
1782891174852362800,0.90936279296875,0.05475742610394954,-0.21904081033170222,-0.12676584673821925
1782891174862385200,0.91938525390625,0.1322322954505682,-0.23720775066316127,-0.1296872871428728
1782891174872407000,0.929406982421875,0.1947030724108219,-0.2473316697925329,-0.14050094210207462
1782891174882429000,0.939428955078125,0.17357260609865188,-0.22200258274674414,-0.1370300511211157
1782891174892451000,0.949451171875,0.1341509885534644,-0.19948446146845816,-0.10365735835134983
1782891174902473000,0.959472900390625,0.11543050599247216,-0.1681651940971613,-0.0962339303523302
1782891174912494800,0.969494873046875,0.027821780644357204,-0.1091267296731472,-0.10083236405849456
1782891174922516700,0.979516845703125,-0.11152297715991735,-0.061252048820257185,-0.08089666048884392
1782891174932539000,0.989538818359375,-0.27564591012895107,-0.016450784063339233,-0.09407470649182796
1782891174942561000,0.99956103515625,-0.29862521917819973,-0.0349304436057806,-0.1580780998468399
1782891174952583000,1.0095830078125,-0.2565764679998159,-0.11527589995265006,-0.17695406523048876
1782891174962605000,1.01960498046875,-0.14811609328091144,-0.19257365916669367,-0.19540625224411487
1782891174972627000,1.029626953125,0.024178747966885565,-0.2073380975782871,-0.1643348221540451
1782891174982648800,1.03964892578125,0.1548018546551466,-0.19835107352435588,-0.1001554877102375
1782891174992672000,1.049672119140625,0.21049013186842203,-0.18412322620749472,-0.06719722096025943
1782891175002694000,1.05969384765625,0.2007134187415242,-0.197983409255743,-0.01516775851547718
1782891175012716000,1.069716064453125,0.17490590052902696,-0.16879413965046405,-0.023148820397257804
1782891175022738000,1.079738037109375,0.10838614043891429,-0.17736147698760032,-0.052318800780177116
1782891175032759800,1.089759765625,0.02779313907176256,-0.18471885401308535,-0.07571370489299296
1782891175042782000,1.099781982421875,-0.017348609685897826,-0.168382051718235,-0.07315992875695228
1782891175052804000,1.10980419921875,-0.019507249024510384,-0.1806611030548811,-0.08560147717893123
1782891175062826000,1.119825927734375,-0.04568038567900658,-0.17222352957725523,-0.09452069669365883
1782891175072848000,1.129847900390625,-0.12219079390764236,-0.15399872157871722,-0.10719137769639492
1782891175082870000,1.1398701171875,-0.1734910652950406,-0.10878244628012179,-0.04573357717096805
1782891175092892000,1.149891845703125,-0.19210750295966864,-0.12294774975478648,-0.0066927756369113914
1782891175102913800,1.159913818359375,-0.12553221329003572,-0.12915069604814053,-0.011612111860513686
1782891175112936000,1.16993603515625,-0.0832958305850625,-0.18085867145359516,-0.021519173368811605
1782891175122957800,1.179957763671875,-0.022426351341605186,-0.22499942647516727,-0.05727087022960186
1782891175132980000,1.18997998046875,0.01123158811032772,-0.2434282326132059,-0.05242927541732788
1782891175143002000,1.200002197265625,0.05518792647570371,-0.2630038706988096,-0.04786357493698597
1782891175153024000,1.21002392578125,0.07076689614057541,-0.24722119515538213,-0.03685936584174633
1782891175163046000,1.2200458984375,0.015720423962175847,-0.21505787817537783,-0.02742810515165329
1782891175173068000,1.230068115234375,-0.037055180674791334,-0.21609072835445403,-0.05203413861989974
1782891175183090000,1.24008984375,-0.06151625271439552,-0.2084896057009697,-0.11004910521507262
1782891175193112800,1.25011279296875,-0.057204234734177586,-0.24380524923205374,-0.13472820391952992
1782891175203135000,1.260135009765625,-0.022609014432132243,-0.25704174742400643,-0.19619418775141237
1782891175213156900,1.270156982421875,-0.0016200024172663688,-0.25040274780094623,-0.20295359888374803
1782891175223179000,1.280178955078125,0.031789222970604894,-0.2502735684633255,-0.20435177524387835
1782891175233201200,1.290201171875,0.06255027193725109,-0.25722937895059583,-0.23151275389194487
1782891175243223300,1.300223388671875,0.06481821686923503,-0.29257834022939205,-0.22426760506927965
1782891175253245200,1.3102451171875,0.05441431175470352,-0.2847679587393999,-0.22833237029016015
1782891175263267300,1.320267333984375,0.04897387426644564,-0.24735154353678224,-0.21214111394584179
1782891175273289200,1.330289306640625,0.04890110129117965,-0.2462649173438549,-0.19262743518054484
1782891175283311000,1.34031103515625,-0.028477906465530393,-0.2021919668614864,-0.15142799430787562
1782891175293333200,1.350333251953125,-0.09908639717400074,-0.17700433411300182,-0.1185895545452833
1782891175303355100,1.360355224609375,-0.15910393576323986,-0.1854623658567667,-0.12442191396057604
1782891175313377000,1.370376953125,-0.20636896028518675,-0.19989011965990067,-0.11846563590466976
1782891175323399400,1.3803994140625,-0.24098259302675723,-0.20187281790971756,-0.0840776286125183
1782891175333421300,1.39042138671875,-0.2303597844645381,-0.18186989432275294,-0.011062661284208297
1782891175343443200,1.400443115234375,-0.19695698881745338,-0.17534429194629192,0.05148234995603561
1782891175353465000,1.410465087890625,-0.10698913312256336,-0.1557166314125061,0.05856967786848545
1782891175363487200,1.4204873046875,-0.027873510831594464,-0.17917758649885654,0.08979249912798404
1782891175373509000,1.430509033203125,0.02806552627235651,-0.19143910217881202,0.11232114180028438
1782891175383531000,1.440531005859375,0.05206102662682533,-0.17439269030988216,0.12217208920717239
1782891175393554200,1.45055419921875,0.07111819379627704,-0.19474866511821745,0.08124328196942805
1782891175403576000,1.460576171875,0.0328086291462183,-0.21949264575242994,0.027021277916431427
1782891175413598200,1.47059814453125,-0.05753624316751957,-0.18566344138681887,-0.019380407774448393
1782891175423620000,1.4806201171875,-0.13563771997988222,-0.18459727346003055,-0.05018938753604889
1782891175433642200,1.490642333984375,-0.2037660843104124,-0.15202245306968687,-0.06441197415590286
1782891175443664100,1.5006640625,-0.25532179176360364,-0.13101239826679228,-0.06926233679652213
1782891175453686300,1.510686279296875,-0.23929040215611455,-0.1533726986348629,-0.09800503167808056
1782891175463708200,1.520708251953125,-0.192392165119946,-0.19029460831880568,-0.1219318507105112
1782891175473730000,1.53072998046875,-0.13598843311369418,-0.1936041712582111,-0.1329500883311033
1782891175483752200,1.540752197265625,-0.09604659108668565,-0.20754034215211867,-0.1542138256341219
1782891175493774000,1.550774169921875,-0.006923077261447906,-0.20550620597600935,-0.1258534080684185
1782891175503796200,1.560796142578125,0.11133388432860374,-0.22016075427234172,-0.1043207906961441
1782891175513818400,1.570818359375,0.19900515351891515,-0.19939795222878454,-0.0724707774490118
1782891175523840300,1.58084033203125,0.2818319052875042,-0.21677812609672545,-0.059468088012933726
1782891175533862100,1.590862060546875,0.3501537463635206,-0.218310157969594,-0.05988777472972869
1782891175543884300,1.60088427734375,0.3301028919816017,-0.21363047572076319,-0.0645952217683196
1782891175553906200,1.61090625,0.2587783619582653,-0.19484394218623638,-0.09521014026254415
1782891175563928000,1.620927978515625,0.11848521738797425,-0.12717910371422766,-0.10598054060190916
1782891175573950200,1.6309501953125,0.022970541220903397,-0.08044365602433681,-0.11040829391628502
1782891175583972000,1.64097216796875,-0.012569558715820313,-0.05786182186007499,-0.12743863143324852
1782891175593995000,1.6509951171875,-0.014899170707166193,-0.07223872225880622,-0.18257745807021855
1782891175604017200,1.66101708984375,-0.003810498198866844,-0.1055886186748743,-0.2020344382122159
1782891175614039300,1.671039306640625,0.0135024556517601,-0.14112228887081146,-0.22850509650856254
1782891175624061200,1.681061279296875,0.02308744559884071,-0.14764964481294154,-0.18907967957109212
1782891175634083300,1.691083251953125,0.019598142178356648,-0.1792225946843624,-0.1271779346704483
1782891175644105200,1.701105224609375,0.005531915163993835,-0.1726256806373596,-0.08669161050319671
1782891175654127000,1.711127197265625,-0.00007628010660409927,-0.16414894419312476,-0.05369505756944418
1782891175664149200,1.721149169921875,-0.04741583116948604,-0.16941840902864932,-0.004160919071733951
1782891175674171100,1.731171142578125,-0.06066811145246029,-0.20966391017735003,-0.022126199351251125
1782891175684193000,1.741193115234375,-0.06368336762040853,-0.21763152805566788,-0.02499327922016382
1782891175694215400,1.75121533203125,-0.029954993280768394,-0.21328034710884092,-0.0489817653119564
1782891175704237300,1.7612373046875,0.0038940848290920254,-0.24501579406559465,-0.07619067475497722
1782891175714259200,1.77125927734375,0.03809153798520565,-0.18076339438557623,-0.04555120634138584
1782891175724281000,1.781281005859375,-0.006940905179083347,-0.18593349049985408,-0.04287380382567644
1782891175734303200,1.79130322265625,-0.07554068641364574,-0.17920330546200275,-0.06659867054522037
1782891175744325000,1.8013251953125,-0.11887363218367099,-0.1586491777330637,-0.08822890307307243
1782891175754347000,1.811346923828125,-0.12365969741642474,-0.14998890141546725,-0.08078034063279628
1782891175764369200,1.821369140625,-0.15312924526780844,-0.16780863574445246,-0.09928864174783229
1782891175774391300,1.831391357421875,-0.15245266118049622,-0.12125731244981289,-0.07816109804511069
1782891175784413200,1.8414130859375,-0.09799041863083839,-0.08156418448686599,-0.042967911849915975
1782891175794435300,1.851435302734375,0.000772153416275978,-0.08833236344754695,-0.045802258493006225
1782891175804457200,1.861457275390625,0.0881497003570199,-0.08332301085293292,-0.092090254676342
1782891175814480400,1.87148046875,0.13945727826803922,-0.10970715990960597,-0.1330237380892038
1782891175824502300,1.881502197265625,0.13386018891334533,-0.12954407927989958,-0.14759294618964194
1782891175834524200,1.891524169921875,0.1260498074233532,-0.18093173668980597,-0.20045038389116523
1782891175844546000,1.901546142578125,0.12735329123735428,-0.1753711799532175,-0.18229162686616182
1782891175854568200,1.911568115234375,0.09262684577107429,-0.18117723588347434,-0.1840130438312888
1782891175864590000,1.921590087890625,0.09090572106689214,-0.18328560633957386,-0.15649346100389958
1782891175874612000,1.931612060546875,0.060791153310239314,-0.1843377457410097,-0.09592851766496896
1782891175884634400,1.94163427734375,0.024592297203838823,-0.18061609486937522,-0.035162791056931014
1782891175894656300,1.95165625,0.025158406654000282,-0.18262626564800738,-0.04320873486846685
1782891175904678100,1.96167822265625,0.0010866261929273605,-0.19364274970293044,-0.06888473565578461
1782891175914700300,1.9717001953125,-0.034031448939442634,-0.1856359688580036,-0.08277794419080019
1782891175924722200,1.98172216796875,-0.062334291099011896,-0.16205927843749524,-0.10760346562862395
1782891175934744000,1.991744140625,-0.07739888150095939,-0.14862871897816657,-0.0628109687000513
1782891175944766200,2.00176611328125,-0.10672229887992143,-0.13712182105779647,-0.03177460992336273
1782891175954788000,2.0117880859375,-0.12332330506891011,-0.1476683495134115,-0.05934475389420986
1782891175964810200,2.021810302734375,-0.06071925711780786,-0.1695195313155651,-0.0898395531401038
1782891175974832400,2.031832275390625,0.004732873740792274,-0.17719722633659837,-0.10146832387447356
1782891175984854300,2.041854248046875,0.013605331504344939,-0.19107669860720633,-0.08308131105154752
1782891175994876200,2.051876220703125,-0.017178221555054187,-0.18791735779345034,-0.05029606278091669
1782891176004898000,2.06189794921875,-0.02167904010564089,-0.18225217163860796,-0.036083997555077074
1782891176014920200,2.071920166015625,-0.010261574034392833,-0.19049568384885787,-0.04049976817071438
1782891176024942000,2.081942138671875,0.01135316866338253,-0.172509360781312,-0.03567453997135162
1782891176034965200,2.09196533203125,0.012913549847900867,-0.15970950044095517,-0.03650076166242361
1782891176044987100,2.101987060546875,-0.015428455278277397,-0.13476561332046985,-0.017556114956736563
1782891176055009000,2.112009033203125,-0.02221972285360098,-0.1130132157176733,-0.015202245306968688
1782891176065031200,2.12203125,0.03143646401017904,-0.1361351481080055,-0.03269464737772941
1782891176075053300,2.13205322265625,0.09397942942380905,-0.17842647587060928,-0.09087269558012485
1782891176085075200,2.1420751953125,0.1759025103509426,-0.206092481431365,-0.12304536491036415
1782891176095097300,2.152097412109375,0.21790537656098602,-0.24302491250932215,-0.11588351045697927
1782891176105119200,2.162119140625,0.16603870346248148,-0.26017595379650593,-0.10311433751583099
1782891176115141000,2.17214111328125,0.09024959524571895,-0.2360737781971693,-0.10682283664494752
1782891176125163000,2.1821630859375,-0.017945114274322986,-0.23850714282393454,-0.09978753118067979
1782891176135185200,2.19218505859375,-0.08183072646856307,-0.21553075638413427,-0.09946107570528984
1782891176145207000,2.20220703125,-0.110607908141613,-0.1846697541743517,-0.11650777983516454
1782891176155229200,2.212229248046875,-0.11442249799370766,-0.14877251136302946,-0.07897475251555443
1782891176165251300,2.222251220703125,-0.10898410633206367,-0.12980652960836886,-0.08652560628652572
1782891176175273200,2.232273193359375,-0.13294833476543425,-0.13456395326852796,-0.1015691539004445
1782891176185295000,2.242295166015625,-0.13360066119432448,-0.13490823666155338,-0.11942980476170778
1782891176195317200,2.252317138671875,-0.06331015039384365,-0.16786124271452427,-0.14741729736179113
1782891176205339100,2.262339111328125,-0.008930325430631637,-0.16733751110136508,-0.1685521475881338
1782891176215361000,2.272361083984375,0.011896774020791053,-0.21286124491393565,-0.1436988613605499
1782891176225383000,2.2823828125,0.009758300687372684,-0.20826690286099908,-0.119666243866086
1782891176235404800,2.29240478515625,-0.03414659975171089,-0.16992752759456634,-0.07819938422888517
1782891176245428000,2.302427978515625,-0.09949439345300197,-0.1792746171325445,-0.039546120707690716
1782891176255449900,2.312449951171875,-0.14893033227324484,-0.1626350324988365,-0.012314999432861804
1782891176265471700,2.3224716796875,-0.12499649897813796,-0.14290391159057617,-0.0234343593403697
1782891176275494000,2.332493896484375,-0.07879355072975158,-0.1477127731770277,-0.042437458235025406
1782891176285515800,2.342515869140625,0.0031236849784851074,-0.15977087523937225,-0.041371582569181914
1782891176295537700,2.35253759765625,0.06337795493304729,-0.16037994704842568,-0.08127835328280925
1782891176305559800,2.362559814453125,0.12263678410947322,-0.16726503038704393,-0.09858137026131153
1782891176315581700,2.372581787109375,0.16633856319189072,-0.20651684432327747,-0.11029226632118225
1782891176325603800,2.382603759765625,0.16971593067049978,-0.22675123857855795,-0.10994389127492904
1782891176335626000,2.3926259765625,0.1251134033560753,-0.2321568970143795,-0.07283610363006592
1782891176345647900,2.40264794921875,0.09303688787668943,-0.21198387755751608,-0.05087094005942344
1782891176355669800,2.412669677734375,0.06424567767828702,-0.21329379111230373,-0.03271861277520657
1782891176365692000,2.42269189453125,0.027490064471960066,-0.18561317250430584,-0.0627542700767517
1782891176375713800,2.4327138671875,-0.013316577690839767,-0.1589098744958639,-0.06476794798672199
1782891176385735700,2.442735595703125,-0.11630816560983658,-0.14610650702416897,-0.07478256152272224
1782891176395757800,2.4527578125,-0.17953414485156535,-0.16610592347979544,-0.0926221695959568
1782891176405779700,2.46277978515625,-0.21061726537942885,-0.1471896260857582,-0.1270727207303047
1782891176415801900,2.4728017578125,-0.18666326607912778,-0.1531014804780483,-0.12156827809512614
1782891176425824000,2.482823974609375,-0.10781330898702143,-0.1994482211112976,-0.11090659882724284
1782891176435846000,2.492845947265625,-0.066480012601614,-0.24049802438020704,-0.11350479862689972
1782891176445867800,2.50286767578125,0.009473346266150474,-0.21343173827826975,-0.10999942085444926
1782891176455891000,2.512890869140625,0.08407792087346315,-0.22461598011553285,-0.12722820355296136
1782891176465912800,2.522912841796875,0.11125965004861355,-0.22427988002896307,-0.1320750590622425
1782891176475934700,2.532934814453125,0.0890124546661973,-0.2081020676881075,-0.09949322440922259
1782891176485956900,2.542956787109375,0.07450491362512111,-0.16861176882088183,-0.06617956835031509
1782891176495978800,2.552978759765625,0.02711743176728487,-0.1674105763375759,-0.03893149594068527
1782891176506000600,2.563000732421875,0.002884323264658451,-0.20737609150111674,-0.051072600111365316
1782891176516023000,2.57302294921875,-0.015887012700736523,-0.1979009916692972,-0.10729717615842818
1782891176526045000,2.583044921875,-0.05225479563325643,-0.23654139570891855,-0.1461445009469986
1782891176536066800,2.59306689453125,-0.1191565407782793,-0.24165830033123492,-0.14015841227471829
1782891176546088700,2.603088623046875,-0.20127134488523005,-0.2271586503356695,-0.10149228927195071
1782891176556110800,2.61311083984375,-0.2056064514800906,-0.21673954765200615,-0.05059621477127075
1782891176566132700,2.6231328125,-0.1469035026207566,-0.1907505353927612,-0.01525660584270954
1782891176576154600,2.633154541015625,-0.07781564560830592,-0.2078133138746023,0.004941548055410385
1782891176586176800,2.6431767578125,0.005735913303494453,-0.2352677225112915,-0.01177227085828781
1782891176596199000,2.653198974609375,0.06298194135278463,-0.2683113294571638,-0.029895956569910048
1782891176606220800,2.663220703125,0.11765811891406774,-0.29332302111685277,-0.055063715574145314
1782891176616243000,2.673242919921875,0.11130085884183645,-0.3118874363332987,-0.05967617780566215
1782891176626264800,2.683264892578125,0.06470248153507709,-0.31160978843569753,-0.04599252036809921
1782891176636286700,2.69328662109375,-0.03390869934260845,-0.2646042916327715,-0.005370587122440338
1782891176646308900,2.703308837890625,-0.10317512779235839,-0.20788637911081312,0.02570961079597473
1782891176656330800,2.713330810546875,-0.12488953147232532,-0.1349725340694189,0.011575871503353118
1782891176666353700,2.723353759765625,-0.11352993306815623,-0.1287982293486595,-0.008449848437309265
1782891176676375800,2.733375732421875,-0.07132979072034358,-0.12559797200262546,-0.031192426121234892
1782891176686397700,2.743397705078125,0.0038712884753942488,-0.1228033728480339,-0.11246785679459571
1782891176696419800,2.753419921875,0.048612347477674483,-0.17191431749761105,-0.17216010895222425
1782891176706442000,2.76344189453125,0.08572305773198605,-0.17171031935811043,-0.19847791477441787
1782891176716463900,2.7734638671875,0.04095335715711117,-0.17225801636874674,-0.24273469739109277
1782891176726485800,2.78348583984375,-0.04708440725803375,-0.16450667158961296,-0.27744214589595795
1782891176736508000,2.7935078125,-0.11450900723338127,-0.17313363015949726,-0.2678793677806854
1782891176746529800,2.80352978515625,-0.16682167053371666,-0.1853659197449684,-0.22128069821298121
1782891176756551700,2.8135517578125,-0.14666530995070934,-0.19897183577120303,-0.18976649279147387
1782891176766573800,2.82357373046875,-0.09580167641490697,-0.19690613541305063,-0.12060557054281235
1782891176776595700,2.833595703125,0.011180442444980144,-0.1822895810395479,-0.07447334944307804
1782891176786617900,2.843617919921875,0.07014321128427982,-0.16494389396309853,-0.04712181665897369
1782891176796640000,2.853639892578125,0.10652794535160064,-0.18635668434798716,-0.045588323481380935
1782891176806662000,2.863661865234375,0.09172025232017039,-0.19795242959558962,-0.07548866396546364
1782891176816683800,2.873683837890625,0.03802256440222263,-0.19530162282586097,-0.10529928033947944
1782891176826705700,2.88370556640625,0.004009527902305126,-0.17231471499204634,-0.12552139963507652
1782891176836727800,2.893727783203125,-0.02325052720606327,-0.1704606115579605,-0.14157996951043605
1782891176846749700,2.903749755859375,-0.013573182800412177,-0.15593991877436636,-0.11811258468329906
1782891176856771600,2.913771484375,0.009149228878319263,-0.16345336314439773,-0.1275000062316656
1782891176866794000,2.9237939453125,0.01576250953823328,-0.1591717403024435,-0.11307312921136617
1782891176876816000,2.93381591796875,0.04384118755310774,-0.16986965992748737,-0.09812719675302504
1782891176886839000,2.943839111328125,0.05019698632061481,-0.19686755696833133,-0.10049860205948352
1782891176896861000,2.95386083984375,0.04703472289741039,-0.22524843280017376,-0.09413052833229303
1782891176906882800,2.9638828125,0.012464344775676726,-0.21407120522558687,-0.10688567274808883
1782891176916905000,2.973905029296875,-0.04130874646604061,-0.21796821266412733,-0.08622340846955776
1782891176926926800,2.9839267578125,-0.09572656535208225,-0.21681261288821696,-0.08345423601716756
1782891176936948700,2.99394873046875,-0.1332727444142103,-0.17990356268584728,-0.12528320696502923
1782891176946970600,3.003970703125,-0.1321703361302614,-0.15815291864871978,-0.10892974579632282
1782891176956992800,3.01399267578125,-0.08916822974979877,-0.13673662113249302,-0.10511866307556629
1782891176967015000,3.024014892578125,-0.010424363380670546,-0.15104863960146903,-0.08597820153683423
1782891176977036800,3.034036865234375,0.029800387240946292,-0.15208148978054523,-0.04605447968840599
1782891176987059000,3.044058837890625,0.061466860614717005,-0.1414864460080862,-0.04493044409453869
1782891176997080800,3.054080810546875,0.059253276218473906,-0.15940204192698001,-0.0499795441776514
1782891177007102700,3.064102783203125,0.05864712701886892,-0.15451017823219299,-0.0662181467950344
1782891177017124900,3.074124755859375,0.06505874762684107,-0.15648995387256145,-0.09633651394397019
1782891177027146800,3.084146728515625,0.053579322235286234,-0.14950024111568927,-0.12354746921360492
1782891177037168600,3.094168701171875,-0.0058443421140313145,-0.13122691780030726,-0.1275026365801692
1782891177047190800,3.104190673828125,-0.042830841466784474,-0.16404373025298116,-0.13584522525072096
1782891177057213000,3.114212890625,-0.09103110101222991,-0.1950222213625908,-0.13678572097122668
1782891177067234800,3.12423486328125,-0.06588613836169242,-0.19408231016397476,-0.14227233568876982
1782891177077257000,3.134257080078125,-0.016529694518446922,-0.17422200991809367,-0.09741817170083522
1782891177087279900,3.14427978515625,-0.025669571046531198,-0.16212825202047823,-0.04682166466861963
1782891177097301800,3.1543017578125,-0.024868483796715735,-0.14719605582654474,-0.03931289647370577
1782891177107324000,3.164323974609375,-0.019639058710634708,-0.1597691216737032,-0.04887129067480564
1782891177117345800,3.174345703125,-0.02306961768120527,-0.1783808831632137,-0.09428279628455638
1782891177127367700,3.18436767578125,-0.03593085281997919,-0.1850572921872139,-0.16638474042117596
1782891177137389800,3.194389892578125,-0.018647417324781417,-0.2318026767492294,-0.17798370053917167
1782891177147411700,3.20441162109375,-0.01678103893101215,-0.24222411752045153,-0.16127280423492193
1782891177157433900,3.214433837890625,0.02397474982738495,-0.232915021905303,-0.11092559578865765
1782891177167456000,3.2244560546875,0.030559681175649164,-0.20136369934380052,-0.0549967878177762
1782891177177478000,3.234477783203125,0.019384207166731355,-0.18192542390227318,0.013546294793486595
1782891177187499800,3.244499755859375,-0.0008165770798921585,-0.15530921965539454,0.06192717160284519
1782891177197522000,3.25452197265625,-0.016231880615651607,-0.1589051983207464,0.06230623404830694
1782891177207543800,3.264543701171875,-0.02770166139602661,-0.17246318355202675,0.041862288695573804
1782891177217565700,3.274565673828125,-0.01156447332650423,-0.1748918720036745,0.02445698038637638
1782891177227588400,3.28458837890625,-0.019039631512761116,-0.17820961824953555,-0.02248538805246353
1782891177237610200,3.2946103515625,-0.02740355523228645,-0.18438801462352275,-0.04517623554915189
1782891177247632400,3.30463232421875,-0.020482231536507606,-0.19518530296981335,-0.05019377145022154
1782891177257654500,3.314654541015625,-0.010304828654229641,-0.16898118665516376,-0.06255056419819593
1782891177267676400,3.324676513671875,-0.024915245547890662,-0.1655763466477394,-0.08626549404561519
1782891177277698600,3.334698486328125,-0.04677636422216892,-0.1924813047081232,-0.08358926057368517
1782891177287720400,3.344720458984375,-0.03631225335299969,-0.1968470987021923,-0.10680705455392599
1782891177297742300,3.354742431640625,-0.028749709144234657,-0.19677754059731958,-0.1059896006911993
1782891177307765500,3.364765625,-0.03429185344129801,-0.1897884123623371,-0.08929097934663295
1782891177317787400,3.374787353515625,-0.02376899812221527,-0.1982628107190132,-0.06880874781012535
1782891177327809300,3.384809326171875,-0.012713058839738368,-0.2100356660991907,-0.05272504349350929
1782891177337831400,3.39483154296875,0.00206219322681427,-0.20312895545065401,-0.03331862449496984
1782891177347853300,3.404853271484375,0.08969517623335123,-0.2242792955070734,-0.0009609539866447448
1782891177357875500,3.41487548828125,0.08950023818314075,-0.20782851144373415,0.03661708151847124
1782891177367897600,3.424897705078125,0.10160130260437726,-0.1977706432878971,0.0434986577257514
1782891177377919500,3.43491943359375,0.1317009650528431,-0.1618202089846134,0.056680503121018404
1782891177387941400,3.44494140625,0.12802753723710775,-0.15274784473478792,0.003805529762804508
1782891177397963500,3.454963623046875,0.043410394920408726,-0.15732698921859264,-0.06998188324272632
1782891177407985400,3.4649853515625,-0.04785597615242004,-0.1468196237295866,-0.11909750406742095
1782891177418007300,3.47500732421875,-0.11913608251214027,-0.13264379886090755,-0.17166677247732876
1782891177428029400,3.485029541015625,-0.16884616209864614,-0.12761632608771323,-0.1763905861288309
1782891177438051600,3.495051513671875,-0.18952888464331627,-0.10350304457247257,-0.19033757067769766
1782891177448073500,3.505073486328125,-0.17099340326040982,-0.08609130652248859,-0.16635317623913287
1782891177458095600,3.515095703125,-0.10480331351608037,-0.07477437821626663,-0.1733864358767867
1782891177468117500,3.525117431640625,-0.052671267479658126,-0.11820903079509734,-0.17387714200317858
1782891177478139400,3.535139404296875,0.030260698229074477,-0.11805120988488196,-0.18943682244569063
1782891177488161300,3.545161376953125,0.09827508079111576,-0.12930676339268685,-0.19297990188002584
1782891177498183400,3.555183349609375,0.12232464942038059,-0.17822130868732927,-0.18957418508976698
1782891177508205300,3.565205322265625,0.1344359429746866,-0.1931084966957569,-0.15805559575408695
1782891177518227500,3.5752275390625,0.1334177058428526,-0.16748422609567643,-0.11141571739315986
1782891177528249600,3.58524951171875,0.12205781517773866,-0.16662907057106494,-0.0783960758447647
1782891177538272300,3.595272216796875,0.10637567739933729,-0.1776461391478777,-0.05767506711632013
1782891177548294700,3.605294677734375,0.0918985314965248,-0.20506547647118567,-0.06069295363277197
1782891177558316500,3.615316650390625,0.06465250491350889,-0.20338556056022644,-0.0648956660196185
1782891177568338400,3.62533837890625,0.025697043575346468,-0.2154775648921728,-0.05645020149648189
1782891177578360600,3.635360595703125,-0.027317630514502523,-0.20958792233169077,-0.059388300774991507
1782891177588382500,3.645382568359375,-0.11905220362097024,-0.17702303881347178,-0.037407647374272344
1782891177598404400,3.655404296875,-0.16485007819980382,-0.18317220909297466,-0.05133066652566194
1782891177608426200,3.66542626953125,-0.15951573143452405,-0.18216566239893436,-0.05974719721525907
1782891177618448400,3.675448486328125,-0.12484043163359164,-0.1943810008496046,-0.08468523911684751
1782891177628470500,3.685470458984375,-0.053848786826431745,-0.18935586616396902,-0.0929921719521284
1782891177638492400,3.695492431640625,0.005637713626027107,-0.19163024083673952,-0.08071312061548233
1782891177648514600,3.7055146484375,0.03059036857485771,-0.17450725660026073,-0.056982408677041525
1782891177658536400,3.715536376953125,0.05045242238640785,-0.17221417722702026,-0.02589519649595022
1782891177668558300,3.725558349609375,0.06338146206438541,-0.1819447131246328,-0.004926642747223377
1782891177678580500,3.73558056640625,0.06686170539557934,-0.15319675754606724,-0.03826455646455288
1782891177688602400,3.745602294921875,0.06642009910792111,-0.15250702171623706,-0.07339782916605472
1782891177698624300,3.755624267578125,0.06699936030060052,-0.1803378624498844,-0.07374152803719043
1782891177708646700,3.765646728515625,0.056360769647359844,-0.1497603533565998,-0.09694529349207878
1782891177718668500,3.77566845703125,0.014109481634199618,-0.16999065595865248,-0.11182459045499563
1782891177728690400,3.7856904296875,-0.019773791006207464,-0.16877777303755281,-0.10747282498627901
1782891177738712600,3.795712646484375,-0.03942892406880855,-0.15953063674271106,-0.13365034555494784
1782891177748734500,3.805734375,-0.011689853271842002,-0.16617898871600628,-0.1153267533570528
1782891177758757400,3.81575732421875,0.02171907985508442,-0.16004910765886307,-0.09973901586383581
1782891177768779500,3.825779541015625,0.06992752270698548,-0.16598492744863033,-0.10878566115051508
1782891177778801400,3.835801513671875,0.08885434149503707,-0.17095628612041472,-0.1259749886214733
1782891177788823300,3.8458232421875,0.07886223205178976,-0.18101298523247242,-0.11882453234493731
1782891177798845400,3.855845458984375,0.0242228793695569,-0.20391279930472372,-0.13024404424279928
1782891177808867300,3.865867431640625,-0.037540041582286354,-0.19549860670268535,-0.09725362878888845
1782891177818889500,3.875889404296875,-0.09101561118215322,-0.18791443518400192,-0.052876726923882955
1782891177828911600,3.88591162109375,-0.10139818124771117,-0.1527753172636032,-0.032623920229077334
1782891177838933500,3.89593359375,-0.09507979188114404,-0.1475040988624096,-0.0023211364239454266
1782891177848955400,3.905955322265625,-0.044134033019840715,-0.14350187748372553,0.028786241762340067
1782891177858977500,3.9159775390625,-0.009495265837013721,-0.12026070262789726,0.04133621899485588
1782891177868999400,3.92599951171875,-0.00384030881524086,-0.1304594405591488,0.05853402203321457
1782891177879021300,3.936021240234375,-0.0006204699859023093,-0.15574878011643886,0.05539601626843214
1782891177889043500,3.94604345703125,0.021551614333689212,-0.14942308422625064,0.010767185468971728
1782891177899065600,3.956065673828125,0.05845744966566562,-0.16401918033361435,0.01118541088104248
1782891177909087500,3.96608740234375,0.11478782417476177,-0.1654325542628765,-0.006693944680690765
1782891177919107300,3.976107421875,0.11509586721062659,-0.16548106957972047,-0.006975976492464542
1782891177929129500,3.98612939453125,0.1348205583781004,-0.18430208990573882,-0.035956279522180556
1782891177939151600,3.996151611328125,0.14653905322253702,-0.16319208185970782,-0.06125964760482311
1782891177949173500,4.006173583984375,0.12203589560687542,-0.14757599505484104,-0.09226093506813049
1782891177959195400,4.0161953125,0.07445230665504932,-0.1503518895089626,-0.12227438053786754
1782891177969217500,4.026217529296875,0.01891045217514038,-0.14635200621783734,-0.16264116997867822
1782891177979239400,4.036239501953125,-0.04949556005299091,-0.1525362478107214,-0.1782037730306387
1782891177989261300,4.04626123046875,-0.06523731906414032,-0.17326514758467673,-0.20565730488449335
1782891177999283500,4.056283447265625,-0.05992986030578613,-0.16724340307712554,-0.22992197756916283
1782891178009305600,4.0663056640625,-0.029745149922370907,-0.16259353144466876,-0.22200287500768898
1782891178019327500,4.076327392578125,-0.02468085227012634,-0.16040917314291,-0.19537468806207178
1782891178029349400,4.086349365234375,-0.020877952855825423,-0.14168109179735183,-0.18347995986789464
1782891178039372500,4.09637255859375,0.004074117571115494,-0.16426409500539302,-0.14874416205137966
1782891178049394400,4.10639453125,0.04099135107994079,-0.17793547748327254,-0.10767477729916572
1782891178059416600,4.11641650390625,0.07718670005500317,-0.17442717710137368,-0.09239391379803419
1782891178069438500,4.1264384765625,0.07657119850516318,-0.19988602800667285,-0.04746171613782644
1782891178079460400,4.13646044921875,0.048830374142527576,-0.2140051542520523,0.0031958734318614005
1782891178089482500,4.146482421875,0.03400105380117893,-0.22138357406556605,0.044531800165772434
1782891178099504400,4.15650439453125,-0.027584172496199606,-0.2268324871212244,0.06191080498993396
1782891178109526300,4.1665263671875,-0.056851475773751735,-0.22761750001907347,0.04358341339975595
1782891178119548400,4.17654833984375,-0.08001841634958982,-0.22205577423870562,0.011464812344312666
1782891178129570600,4.186570556640625,-0.08504735042750836,-0.22069559180140494,-0.016561258700489998
1782891178139592400,4.196592529296875,-0.09630378071814776,-0.2141916167348623,-0.0627940175652504
1782891178149614300,4.2066142578125,-0.09885668007135391,-0.20183482398688793,-0.11635931127518415
1782891178159636500,4.216636474609375,-0.08634469676166773,-0.20919570814371108,-0.16765636779218912
1782891178169658400,4.226658447265625,-0.0892500628143549,-0.21988719802796838,-0.20217793833613396
1782891178179680300,4.23668017578125,-0.042403848226368425,-0.21011633011996744,-0.24091186587810515
1782891178189702400,4.246702392578125,0.005024257902801037,-0.23442776455581188,-0.23897797520607708
1782891178199724500,4.256724609375,0.040972061857581135,-0.2225970415085554,-0.18241613002866505
1782891178209746400,4.266746337890625,0.05791209074258804,-0.18415829752087592,-0.1516270240113139
1782891178219768600,4.2767685546875,0.04754764085561037,-0.14684358912706375,-0.0949155412301421
1782891178229790000,4.2867900390625,0.059625908923149104,-0.1482353357464075,-0.059144847407937046
1782891178239811800,4.296811767578125,0.020526070678234098,-0.12864800722301006,-0.03928133229166269
1782891178249834000,4.306833984375,0.0014420155018568038,-0.14975275457203388,-0.046862873461842536
1782891178259856000,4.31685595703125,-0.0451978628590703,-0.19754910949170587,-0.07125000348240136
1782891178269878000,4.3268779296875,-0.06938596317619085,-0.2434843467146158,-0.09585252981930971
1782891178279901000,4.33690087890625,-0.045780923444032666,-0.2593079387903213,-0.10208470220714808
1782891178289923000,4.346923095703125,-0.00853811124265194,-0.27554654140770435,-0.0770458302795887
1782891178299946000,4.356946044921875,0.049803310827910896,-0.28807518359124656,-0.03957330097556114
1782891178309968000,4.3669677734375,0.09587503391206265,-0.2691384279310703,-0.027284020505845545
1782891178319990000,4.376989990234375,0.06618482904732227,-0.22701310438513755,-0.041427404409646984
1782891178330012200,4.38701220703125,0.05854220533967018,-0.18247604352235794,-0.0753135996595025
1782891178340034000,4.397033935546875,-0.03464578144550323,-0.16936580205857754,-0.11481968061774968
1782891178350056000,4.407055908203125,-0.11611819599568843,-0.15382570309937,-0.12792261555790901
1782891178360078000,4.417078125,-0.17296704142093658,-0.1268780749410391,-0.13597557363212107
1782891178370100000,4.427099853515625,-0.19404753111153838,-0.09315700712502002,-0.11301789189279078
1782891178380123000,4.437122802734375,-0.19005612338781355,-0.09060790716409682,-0.09047259034663438
1782891178390145000,4.44714501953125,-0.13591039944142103,-0.09169979405403136,-0.06520166322886943
1782891178400167000,4.4571669921875,-0.08120353448092937,-0.12694471043646335,-0.08428571840524673
1782891178410188800,4.467188720703125,-0.023385844023525712,-0.14611527485251427,-0.09461188210844992
1782891178420211200,4.477211181640625,0.050481063959002495,-0.13100187687277792,-0.09973784682005643
1782891178430233000,4.487233154296875,0.07803045740276575,-0.13959084151983261,-0.10584814639389514
1782891178440255000,4.4972548828125,0.10960369953513145,-0.15030571227967737,-0.10973580148220062
1782891178450277000,4.507277099609375,0.11003127729743718,-0.16123451805114744,-0.07019348016679286
1782891178460299000,4.517299072265625,0.0890530789375305,-0.1702285563677549,-0.06337883171588182
1782891178470321000,4.52732080078125,0.05332768556177616,-0.1772702915728092,-0.0599289835229516
1782891178480342800,4.5373427734375,0.03309475261121988,-0.16652385663092134,-0.02878185784816742
1782891178490365000,4.547364990234375,0.018002981941401958,-0.17042670928835868,-0.00900514423251152
1782891178500387000,4.557386962890625,0.028724866963922974,-0.17323884409964083,0.009659808748960495
1782891178510409000,4.567408935546875,0.04740647881925106,-0.1673895335495472,0.017519582338631153
1782891178520431000,4.57743115234375,0.018299626800417898,-0.1663093370974064,0.02331453235298395
1782891178530453000,4.587452880859375,-0.03313566914349794,-0.16069149721562861,0.028574644838273523
1782891178540475000,4.597474853515625,-0.07782733604609966,-0.1315957511126995,0.027561668403446673
1782891178550497000,4.6074970703125,-0.08519991064071655,-0.14374854572117327,0.002590601015090942
1782891178560519000,4.617518798828125,-0.0885088890582323,-0.16446049436032772,-0.04301292003542185
1782891178570540800,4.627540771484375,-0.02650251473933458,-0.16986147662103177,-0.05716536402851343
1782891178580563000,4.63756298828125,0.019957623140513896,-0.1715285330504179,-0.07686813562512397
1782891178590585000,4.647585205078125,0.09180471573323011,-0.1870867521882057,-0.1125865147382021
1782891178600607000,4.65760693359375,0.1284668054372072,-0.1865554217904806,-0.11782383086979388
1782891178610630100,4.667630126953125,0.15790946528166533,-0.17212649894356727,-0.10498773017227649
1782891178620652000,4.677652099609375,0.1273380936682224,-0.1572463251978159,-0.09093407037854194
1782891178630674000,4.687673828125,0.07750234187543392,-0.15140870508551596,-0.11276947008967399
1782891178640696000,4.697696044921875,0.027098434805870056,-0.12379296840727329,-0.13464432502835988
1782891178650718000,4.707718017578125,-0.011632570126652716,-0.1640028137207031,-0.19027327326983212
1782891178660739800,4.71773974609375,-0.03831424082517624,-0.18957798448204993,-0.23600334330946204
1782891178670762000,4.727761962890625,-0.015161913296580313,-0.20034253960251808,-0.2406502923324704
1782891178680784000,4.737783935546875,-0.06197276431024074,-0.1877840868026018,-0.1881818539485335
1782891178690806000,4.747805908203125,-0.08669511763453483,-0.1881856533408165,-0.11489391489773988
1782891178700828200,4.757828125,-0.07535422393083573,-0.16475450887084006,-0.08778612774163484
1782891178710850000,4.76785009765625,-0.06648527329862117,-0.16202362260222433,-0.042405017270147796
1782891178720872000,4.777871826171875,-0.041809681725502014,-0.18280688291192054,-0.06735504187047481
1782891178730894000,4.78789404296875,0.02590221075862646,-0.2007639798849821,-0.0740302818506956
1782891178740916000,4.797916015625,0.08299480181187391,-0.2239560549020767,-0.08836538893431424
1782891178750937900,4.807937744140625,0.11183978802412747,-0.22006664624810218,-0.07941372845470905
1782891178760959700,4.817959716796875,0.11105652869194746,-0.20347206979990004,-0.056015609471499916
1782891178770982100,4.827982177734375,0.019398235692083834,-0.20216157172322272,-0.050237318331003186
1782891178781004000,4.838004150390625,-0.050321489483118056,-0.18114800978899,-0.053741819320619104
1782891178791026000,4.84802587890625,-0.07386193954646587,-0.19029227023124692,-0.07426818225979805
1782891178801048000,4.858048095703125,-0.06525777733027935,-0.1834539486438036,-0.11773469128161668
1782891178811070000,4.868070068359375,-0.004999415722489357,-0.19617899018228052,-0.13043898229300974
1782891178821091800,4.878091796875,0.04938099376261234,-0.1997182702243328,-0.15479191778302193
1782891178831114000,4.888114013671875,0.0854965554997325,-0.21176585089266298,-0.13545534915030003
1782891178841137000,4.898136962890625,0.10037585246264934,-0.20420330668389797,-0.11641191824525594
1782891178851159000,4.908158935546875,0.05403203443884849,-0.19020108481645584,-0.12178104406297206
1782891178861181000,4.918180908203125,0.0009358195453882217,-0.17139526205956934,-0.12231734289675951
1782891178871203000,4.928203125,-0.03504764024466276,-0.169428345900774,-0.14476853641867637
1782891178881225000,4.938224853515625,-0.06326835707873106,-0.1568359908312559,-0.14581220025271177
1782891178891247000,4.9482470703125,-0.0797664874151349,-0.13926117117404938,-0.11924947975873947
1782891178901269000,4.95826904296875,-0.11903729831278323,-0.1472206057459116,-0.1296063308611512
1782891178911291000,4.968290771484375,-0.09318389513194561,-0.15221709885895252,-0.12298545141667126
1782891178921313000,4.97831298828125,-0.023078677770495413,-0.1413514214515686,-0.10501228009164333
1782891178931335000,4.9883349609375,-0.015849311038851736,-0.16653905420005322,-0.08005991740375756
1782891178941356800,4.998356689453125,-0.010668109008669853,-0.1895709702193737,-0.04774491699337959
1782891178951379000,5.00837890625,0.020569909819960593,-0.20014204859435558,-0.07402969732880592
1782891178961401000,5.018401123046875,0.03092968353182077,-0.22375439485013485,-0.10249503657370805
1782891178971423000,5.028423095703125,0.0301899710804224,-0.22325696672201156,-0.10467618000507355
1782891178981445000,5.038445068359375,0.040133272945880885,-0.23637597601413726,-0.1188622340068221
1782891178991467000,5.048467041015625,0.06075929686725139,-0.2561649645894766,-0.11196575249135493
1782891179001489000,5.058489013671875,0.029527415518462656,-0.23022037599384784,-0.10060615408718586
1782891179011511000,5.068510986328125,0.02937690113186836,-0.1915232733309269,-0.1019701359167695
1782891179021533000,5.078532958984375,0.02512187403589487,-0.18714988055229187,-0.08541706052273511
1782891179031554800,5.088554931640625,0.017701076385378836,-0.21719605924785135,-0.05364128155559301
1782891179041577000,5.098576904296875,-0.012449731728434561,-0.1996095491528511,-0.0734226713463664
1782891179051599000,5.10859912109375,-0.056717620261013506,-0.19854513479173183,-0.06922434287369252
1782891179061622000,5.1186220703125,-0.04776069908440113,-0.17753683355450628,-0.08153525065332651
1782891179071644200,5.12864404296875,-0.024249767376482486,-0.16857319037616253,-0.04036766622364521
1782891179081666000,5.138666015625,-0.0020168927803635595,-0.15104337890446184,-0.02527209616154432
1782891179091688000,5.14868798828125,-0.011910218024253844,-0.1644791990607977,-0.04879968674331903
1782891179101710000,5.1587099609375,-0.06329203021526336,-0.18363281234204767,-0.031164076809585092
1782891179111732000,5.16873193359375,-0.0934802477300167,-0.18378712612092493,-0.018995500110089776
1782891179121753900,5.17875390625,-0.0984752795383334,-0.13639409130513666,-0.04319879799634218
1782891179131776000,5.18877587890625,-0.06556202097386121,-0.14395897360146045,-0.07110065813958645
1782891179141798100,5.198798095703125,-0.0601227525293827,-0.1559305664241314,-0.08683920228034257
1782891179151820000,5.208820068359375,-0.08074410027563571,-0.1701069758147001,-0.1201104805022478
1782891179161842000,5.218842041015625,-0.04398907159119844,-0.18952011681497097,-0.1289405604287982
1782891179171864000,5.228864013671875,0.0012692892834544182,-0.2010650086581707,-0.13985504541397095
1782891179181886000,5.238885986328125,0.08300736903250217,-0.2176993325948715,-0.14450637835115193
1782891179191907800,5.248907958984375,0.14741612831801176,-0.221773450165987,-0.1318637543991208
1782891179201930000,5.258929931640625,0.18565233547091484,-0.21077917794287204,-0.09628507601767777
1782891179211951900,5.268951904296875,0.14083324279636145,-0.21695582075119016,-0.09314122503399848
1782891179221974000,5.27897412109375,0.06698124012202024,-0.1960930654644966,-0.1169058392420411
1782891179231996000,5.288995849609375,-0.047591479997336865,-0.20845161177814006,-0.0954319663196802
1782891179242017800,5.299017822265625,-0.1536751887127757,-0.21998422866165637,-0.08504472007900477
1782891179252040000,5.3090400390625,-0.2560956987455487,-0.20214812771975993,-0.07680968343615531
1782891179262061800,5.319061767578125,-0.29092034388929605,-0.16641805816888808,-0.08339198443591594
1782891179272083700,5.329083740234375,-0.22325901254862546,-0.1605354298710823,-0.10855009882897138
1782891179282105900,5.33910595703125,-0.09276917685121297,-0.1652677190899849,-0.11498305448591709
1782891179292128800,5.349128662109375,0.027842531171441077,-0.13959317960739134,-0.12589432460069655
1782891179302151000,5.35915087890625,0.1300605043694377,-0.1556651934862137,-0.11195727692395448
1782891179312172800,5.3691728515625,0.16981091547757385,-0.14861702854037284,-0.08501227911412715
1782891179322194700,5.379194580078125,0.18804829069674014,-0.15408815342783927,-0.0438712904304266
1782891179332216800,5.389216796875,0.14591799871474503,-0.16441022547781467,0.0033019641548395155
1782891179342239000,5.399239013671875,0.0882186739400029,-0.15943360610902307,-0.005225041171908378
1782891179352260900,5.4092607421875,0.03826221837699413,-0.17308569936454296,-0.026522973005473613
1782891179362282800,5.41928271484375,-0.009510755667090415,-0.18302257148921489,0.0017044658303260803
1782891179372305000,5.429304931640625,-0.04426934983730316,-0.1404500886976719,-0.024761224029958246
1782891179382326800,5.439326904296875,-0.08512392279505729,-0.1373164668470621,-0.017784663015604017
1782891179392348700,5.4493486328125,-0.09215104495286941,-0.1252916825324297,-0.030021921037137505
1782891179402370800,5.459370849609375,-0.062458794261515134,-0.11985153730511665,-0.045697629074752326
1782891179412393000,5.46939306640625,-0.026324235562980174,-0.1229033260911703,-0.04020779948681593
1782891179422414800,5.479414794921875,-0.0001131049856543541,-0.14981529841423033,-0.03763677995502949
1782891179432437000,5.48943701171875,0.0494853309199214,-0.16780162148177621,-0.07312982587963342
1782891179442459000,5.499458984375,0.07378770526647567,-0.12587503537833689,-0.11784662722349167
1782891179452480800,5.509480712890625,0.052580666586756704,-0.13010931194722652,-0.12466653637140988
1782891179462503000,5.5195029296875,-0.008851999497413634,-0.11262158605158329,-0.1097714573174715
1782891179472524800,5.52952490234375,-0.05267769722044468,-0.07550970675349235,-0.06668634882867336
1782891179482546700,5.539546630859375,-0.08716624227762222,-0.059570963865518564,-0.04446984084546566
1782891179492569000,5.549569091796875,-0.06892214505672455,-0.07536123819351195,-0.060166591671109194
1782891179502591000,5.559591064453125,-0.012530688010156154,-0.11221358977258204,-0.09919833311587571
1782891179512612900,5.56961279296875,0.08017857534736395,-0.1604226171463728,-0.10550503204464912
1782891179522636000,5.579635986328125,0.14324965628832578,-0.21983634462356566,-0.12762889330834148
1782891179532658000,5.589657958984375,0.21191285814791916,-0.2353799507141113,-0.08718436245620251
1782891179542679800,5.5996796875,0.2156853624239564,-0.23313071048259734,-0.05710282018631696
1782891179552702000,5.609701904296875,0.14977671996951103,-0.23262568356990812,-0.04281622841954231
1782891179562723800,5.619723876953125,0.10624065284281968,-0.22781565293967723,-0.037863282187283034
1782891179572745700,5.629745849609375,0.02328501399755478,-0.22903847273290157,-0.04446925632357597
1782891179582767900,5.639767822265625,-0.03612432956546545,-0.22459961350262164,-0.041784839545190335
1782891179592790000,5.6497900390625,-0.12154606626331806,-0.1952823336035013,-0.031125790625810622
1782891179602812000,5.65981201171875,-0.17200988682657478,-0.17481471511423588,-0.016379180131852626
1782891179612833800,5.669833740234375,-0.1774897795423865,-0.16062486172020435,-0.01789922930598259
1782891179622856000,5.67985595703125,-0.1759071865260601,-0.15514847613573074,-0.02628214998692274
1782891179632877800,5.6898779296875,-0.17544307614564894,-0.1592144104003906,-0.03950082026124
1782891179642899700,5.699899658203125,-0.13714695549905298,-0.18859248057603836,-0.06177315008491277
1782891179652921900,5.709921875,-0.11690817732959985,-0.18648761725127697,-0.09096592682152986
1782891179662943700,5.71994384765625,-0.11024112065583466,-0.21050445265471934,-0.05089928937107324
1782891179672966000,5.7299658203125,-0.08711129721999168,-0.18482465247511862,-0.0312619842261076
1782891179682988000,5.739988037109375,-0.05805208373516798,-0.15369360115230082,-0.037218846803903576
1782891179693010000,5.750010009765625,-0.03742430624812841,-0.1619470502346754,-0.03850274913460016
1782891179703031800,5.76003173828125,-0.015497428861260413,-0.1790653582960367,-0.04675239882469177
1782891179713054000,5.770053955078125,0.036659167094528676,-0.20595336522161958,-0.12415858684927224
1782891179723075800,5.780075927734375,0.12967968835830687,-0.2158604267299175,-0.1474266497120261
1782891179733097700,5.79009765625,0.19304069215655326,-0.22536475265622138,-0.15008680883198974
1782891179743121000,5.800120849609375,0.20884324144423005,-0.20871698471605776,-0.11903934413939714
1782891179753142800,5.810142822265625,0.18236527662426233,-0.15288170024752615,-0.1053138933867216
1782891179763164700,5.82016455078125,0.08670388546288013,-0.13145838846862315,-0.08456833473891019
1782891179773186800,5.830186767578125,-0.0330699104309082,-0.11167407606840132,-0.09592822540402411
1782891179783209000,5.840208984375,-0.11850713695883751,-0.08555529994964599,-0.08666443023532629
1782891179793230800,5.85023095703125,-0.16837357615083456,-0.0921381854712963,-0.09821779764592647
1782891179803253000,5.8602529296875,-0.1278375676229596,-0.08613339209854602,-0.12183891173005103
1782891179813275000,5.87027490234375,-0.0751852971047163,-0.0979547627955675,-0.10578647933453321
1782891179823296800,5.880296875,-0.012063947281241416,-0.12374679117798805,-0.08064385477155446
1782891179833319000,5.89031884765625,0.04470891029834747,-0.1283709438472986,-0.053046822793781756
1782891179843340800,5.9003408203125,0.10151333205997944,-0.14458616558909415,-0.02153817033022642
1782891179853362700,5.91036279296875,0.10611702646315097,-0.17922025659680366,-0.035353052932024
1782891179863385000,5.920385009765625,0.09619973582178354,-0.18214754222035406,-0.03242430600374937
1782891179873407000,5.930406982421875,0.09661854575574398,-0.17634090176820755,-0.019624445663392543
1782891179883428900,5.940428955078125,0.08531623049676418,-0.1876402944177389,-0.028759646016359327
1782891179893450800,5.95045068359375,0.04749064997136593,-0.1854611968129873,-0.05445259793847799
1782891179903473000,5.960472900390625,0.01780629032552242,-0.2013122614175081,-0.08095774302631616
1782891179913494800,5.970494873046875,-0.046323067496716976,-0.20697394044101236,-0.15301672480404377
1782891179923516700,5.9805166015625,-0.1420306358873844,-0.2059568723529577,-0.14975684622526167
1782891179933538800,5.990538818359375,-0.2111170315951109,-0.17080255686342716,-0.1133487312823534
1782891179943561000,6.00056103515625,-0.21119915692061184,-0.1579728859066963,-0.12390519661009311
1782891179953582800,6.010582763671875,-0.1758911121740937,-0.17109832493960855,-0.11353607054799794
1782891179963605000,6.02060498046875,-0.07851707187592982,-0.1813315496623516,-0.09518588260412215
1782891179973628000,6.0306279296875,0.020048224033415316,-0.17427929306328296,-0.09181172999590635
1782891179983650000,6.040650146484375,0.07159574818015098,-0.17134207056760786,-0.05316986465156078
1782891179993672000,6.050671875,0.09018909723013639,-0.17223580453693865,-0.025276187814772127
1782891180003693800,6.06069384765625,0.0848971283018589,-0.1730097115188837,0.0005395137041807175
1782891180013715700,6.0707158203125,0.04139262535721063,-0.17213526677191257,0.01582213077098131
1782891180023737900,6.08073779296875,0.03409136243313551,-0.15826690041720867,0.007778525047004222
1782891180033759700,6.090759765625,0.00367342781573534,-0.15294307504594326,-0.021038988636434077
1782891180043781600,6.10078173828125,-0.0010737667113542555,-0.12367372594177722,-0.01668400829732418
1782891180053804000,6.110803955078125,-0.0033288521617650985,-0.13716566019952298,0.005521978291869163
1782891180063826000,6.120825927734375,-0.03946750251352787,-0.14274667520225048,0.005435469052195548
1782891180073847800,6.130847900390625,-0.02547697108387947,-0.13012392499446868,-0.040324996125698086
1782891180083870000,6.140869873046875,0.032764790004491805,-0.16165712737739085,-0.05629793354421854
1782891180093891800,6.150891845703125,0.08549714002162218,-0.16842647538185118,-0.09211305103003978
1782891180103913700,6.160913818359375,0.10018968224078416,-0.15777473298609257,-0.09537292960882186
1782891180113936000,6.170935791015625,0.09232201760560274,-0.14883154807388782,-0.07351765615344047
1782891180123957800,6.180957763671875,0.07429273217916488,-0.13476678236424922,-0.08793079690933227
1782891180133980000,6.19097998046875,0.01250292322039604,-0.15662965460419653,-0.09594897593110799
1782891180144002000,6.201001953125,-0.0544850389033556,-0.16173253070116042,-0.08793868795484304
1782891180154024000,6.21102392578125,-0.05846183357983827,-0.16929507490992546,-0.07990180423259735
1782891180164045800,6.2210458984375,-0.04467793063819408,-0.17598668150305746,-0.05102583836019039
1782891180174068000,6.23106787109375,-0.009978373178839683,-0.16515665993094444,-0.03656389002650976
1782891180184089900,6.24108984375,-0.0040206338182091714,-0.17245324667990206,-0.04177461041212081
1782891180194111700,6.25111181640625,0.016641922721266744,-0.16562953813970088,-0.05245499438047409
1782891180204135000,6.261135009765625,-0.004681435814499855,-0.15527005668878555,-0.06412117451578378
1782891180214156800,6.27115673828125,-0.06593143880814313,-0.14804185900092123,-0.0631295331299305
1782891180224178700,6.2811787109375,-0.09647241528332233,-0.16306816321909426,-0.06524228750020265
1782891180234200800,6.291200927734375,-0.07427724234908818,-0.1621089627981186,-0.044751288135349745
1782891180244223000,6.301222900390625,-0.01370119309425354,-0.1937707599967718,-0.04854600424319505
1782891180254244900,6.311244873046875,0.021467735442519186,-0.188621122148633,-0.04198328472673893
1782891180264267000,6.32126708984375,0.05604600460976362,-0.17046236512362956,-0.07104746664762497
1782891180274289000,6.331288818359375,0.05330430468618869,-0.15354922424554823,-0.0544587354183197
1782891180284310800,6.341310791015625,0.04169043926000595,-0.16011866576373576,-0.054583530841767786
1782891180294332700,6.351332763671875,0.047096389956772323,-0.15539455985128878,-0.09266893134713172
1782891180304354800,6.361354736328125,0.0415226814776659,-0.19226035543382167,-0.09852905555218458
1782891180314376700,6.371376708984375,0.05081307239234447,-0.1878226652473211,-0.13100216913372278
1782891180324398800,6.38139892578125,0.02993248918801546,-0.17346388502717017,-0.1256301207065582
1782891180334421000,6.3914208984375,-0.005106383228302001,-0.15234569367468356,-0.1247948389261961
1782891180344443000,6.40144287109375,-0.03188771490901708,-0.1415133340150118,-0.10865969668328762
1782891180354464800,6.41146484375,-0.046154432931542394,-0.16512041957378387,-0.13802432285547256
1782891180364487000,6.42148681640625,-0.012242518718540667,-0.18787819482684134,-0.148616736279428
1782891180374508800,6.4315087890625,0.012784078249335288,-0.201778709885478,-0.10849661507606506
1782891180384530700,6.44153076171875,0.031027590948343276,-0.19855273357629774,-0.10972878721952438
1782891180394552800,6.451552734375,0.054146600729227064,-0.1927811644375324,-0.10802373686730861
1782891180404575000,6.461574951171875,0.01466273160278797,-0.1618815837830305,-0.10625058971494436
1782891180414596900,6.471596923828125,0.012337503525614737,-0.14918810642659663,-0.11884352930635213
1782891180424619000,6.481618896484375,0.03058686144351959,-0.146596920889616,-0.11750175930857658
1782891180434642000,6.491641845703125,0.0438490785986185,-0.1651572444528341,-0.11197101318836211
1782891180444663800,6.501663818359375,0.1032838488638401,-0.16731296118199823,-0.05743336731493473
1782891180454686000,6.51168603515625,0.15746405960172413,-0.17864216444790362,-0.01568885978013277
1782891180464707800,6.521707763671875,0.16344459531605243,-0.18000819210410118,0.02220657111108303
1782891180474729700,6.531729736328125,0.11476356651633977,-0.19691431871950626,0.021419512386620043
1782891180484752000,6.541751953125,0.08342033374756574,-0.10678805759251117,-0.02521422849446535
1782891180494773800,6.551773681640625,0.029024142171442505,-0.13547697646021842,0.02292202590405941
1782891180504796000,6.5617958984375,-0.05996668518483638,-0.16258710170388221,0.027853929348289966
1782891180514818000,6.571818115234375,-0.10960282275229692,-0.17305004352927206,-0.04468582168370485
1782891180524840000,6.58183984375,-0.16308540661484003,-0.20023089592158794,-0.09142477650493383
1782891180534861800,6.59186181640625,-0.20212591588795184,-0.1752659660130739,-0.10375205089747905
1782891180544884000,6.601884033203125,-0.17410510554015635,-0.18678981506824494,-0.12959580946713686
1782891180554905900,6.61190576171875,-0.11647416982650756,-0.19544015451371669,-0.11438596537560224
1782891180564927700,6.621927734375,-0.05340922636538744,-0.1913391489356756,-0.12679010439664123
1782891180574949600,6.63194970703125,0.008675181625783443,-0.17557400904893875,-0.13724924682974815
1782891180584972000,6.641971923828125,0.05000643218457698,-0.1749479861050844,-0.15959113475829362
1782891180594994000,6.651993896484375,0.05815817445814609,-0.19213935940265656,-0.19113953471034764
1782891180605015800,6.662015869140625,0.047235213905572886,-0.17926760286986826,-0.18988602751791475
1782891180615038000,6.672037841796875,-0.018609131141006947,-0.18599954147338865,-0.18244360255748032
1782891180625059800,6.682059814453125,-0.11043109026998281,-0.17018880887925625,-0.1532911578312516
1782891180635081700,6.692081787109375,-0.17532850985527038,-0.16744798573851585,-0.10214081630855798
1782891180645103900,6.702103759765625,-0.18134762401431798,-0.14554185887873172,-0.07906564566940069
1782891180655125800,6.712125732421875,-0.15665420452356338,-0.15238894829452038,-0.05601590173244476
1782891180665149000,6.72214892578125,-0.07398059749007224,-0.1594067181020975,-0.06258826586008072
1782891180675170800,6.7321708984375,0.014602525848150253,-0.17152502591907978,-0.05501870738863945
1782891180685192700,6.742192626953125,0.1028261682242155,-0.19963351455032824,-0.054798342636227605
1782891180695214800,6.75221484375,0.1868079352468252,-0.1942985832631588,-0.012446516858041285
1782891180705237000,6.762237060546875,0.2326356204420328,-0.1884375822752714,0.0015855156257748603
1782891180715259000,6.7722587890625,0.2362427050232887,-0.18212299230098725,-0.007880524116754531
1782891180725280800,6.78228076171875,0.15467676697075367,-0.18317571622431278,-0.030650866590440272
1782891180735303000,6.792302978515625,0.07709493011832237,-0.18735855486690997,-0.05875789391696453
1782891180745324800,6.80232470703125,0.004792787234485149,-0.1784907732784748,-0.08066168268918991
1782891180755346700,6.8123466796875,-0.06231324831098318,-0.16264964554607866,-0.06253799697756766
1782891180765368800,6.822368896484375,-0.06692278793305158,-0.13778174627125261,-0.06130962422639131
1782891180775391000,6.832390869140625,-0.06644231093972922,-0.15283727658390997,-0.0794815329939127
1782891180785412900,6.842412841796875,-0.06120470254719257,-0.15002689533829688,-0.09159545689672231
1782891180795435000,6.85243505859375,-0.06950929729491472,-0.16487375133633614,-0.06400573144257068
1782891180805457000,6.862456787109375,-0.11419336541295051,-0.19366320796906947,-0.06533347291499376
1782891180815478800,6.872478759765625,-0.13873188660293817,-0.217185537853837,-0.04133709577769041
1782891180825501000,6.8825009765625,-0.11916852347701787,-0.23111294091939924,-0.05159603946357965
1782891180835522800,6.892522705078125,-0.07843465428948401,-0.21693477796316146,-0.04992050746679306
1782891180845544700,6.902544677734375,-0.023112580040097235,-0.18397125051617622,-0.01647270363420248
1782891180855566800,6.91256689453125,-0.006218143862485885,-0.1940232734531164,-0.01866816785186529
1782891180865589000,6.922589111328125,0.012197802793979645,-0.2038607768565416,0.0005868599772453308
1782891180875611000,6.93261083984375,0.019929858350753782,-0.15424480529427528,-0.016387071177363394
1782891180885632800,6.9426328125,-0.015224457138776779,-0.1614934612482786,-0.07605360437184572
1782891180895656000,6.952656005859375,-0.10489859058409928,-0.17832009288668632,-0.16450813289433716
1782891180905677800,6.962677734375,-0.2001537390321493,-0.15972177540063856,-0.28889643684625627
1782891180915700000,6.972699951171875,-0.056179567861557006,0.09153203627169132,-0.4777767944529652
1782891180925721900,6.982721923828125,0.16383271785080433,-0.2466308280467987,-0.1101791613355279
1782891180935743700,6.99274365234375,0.01252045887708664,-0.42618075498938557,-0.0267456758454442
1782891180945766000,7.002765869140625,-0.10546849942654371,-0.13430851720273493,-0.20354630407989024
1782891180955787800,7.012787841796875,-0.026983868515491484,0.017217092260718346,-0.02135959889292717
1782891180965810000,7.022809814453125,0.1990735425800085,0.04340133483111858,0.20193302366435525
1782891180975831800,7.032831787109375,0.30517215660363434,-0.08600596632659435,0.15817513048052786
1782891180985854000,7.04285400390625,0.26216566630899907,-0.2067413007289171,0.11804185753464698
1782891180995875800,7.052875732421875,0.366257324424386,-0.03702010936141014,-0.17926409573853014
1782891181005897700,7.062897705078125,0.24809827025085687,-0.16779928339421749,-0.28829028764665127
1782891181015919900,7.072919921875,0.04581891736686229,-0.3501671903669834,-0.2868634697139263
1782891181025941800,7.082941650390625,-0.12654635876864195,-0.34930735866725443,-0.28204847064763305
1782891181035963600,7.092963623046875,-0.08465718206614255,-0.16639000111818314,-0.12048866616487502
1782891181045986000,7.102986083984375,0.0491322796985507,-0.036353169885277745,0.08213847724348307
1782891181056008000,7.113008056640625,0.19859744950085878,-0.09103811527490616,0.06158288820981979
1782891181066029800,7.12302978515625,0.1334434248059988,-0.21415888350903986,0.12567395984828472
1782891181076052000,7.133052001953125,0.1229883740261197,-0.18336860844790934,0.17687690834105013
1782891181086073900,7.143073974609375,0.12083002694845199,-0.176412797960639,0.06758826610445975
1782891181096095700,7.153095703125,0.09827654209583997,-0.1809048486828804,-0.10451982039958238
1782891181106118000,7.163117919921875,0.0654033232808113,-0.20916180587410926,-0.3323307971641421
1782891181116140800,7.173140869140625,0.02239303359389305,-0.19742928250432012,-0.3798170632213354
1782891181126162700,7.18316259765625,-0.016068506747484206,-0.139964935529232,-0.5129503991648554
1782891181136184800,7.193184814453125,-0.28813509708493945,-0.17775486021935938,-0.6339706879884004
1782891181146207000,7.20320703125,-0.7014297747552395,-0.1994429604142904,-0.439124992236495
1782891181156228900,7.213228759765625,-1.0068760721251369,-0.13011691073179243,-0.23343641543090343
1782891181166251000,7.2232509765625,-1.1176464773520827,-0.06767594438791275,0.015807517723739145
1782891181176273000,7.23327294921875,-0.8618018307581543,-0.023778934994339942,0.03866261587142944
1782891181186294800,7.243294677734375,-0.5033136790305376,0.004666238245368003,-0.09492927749454974
1782891181196317000,7.25331689453125,-0.2520855863213539,-0.07521803033053874,-0.18273264863193034
1782891181206338800,7.2633388671875,-0.13068857313990592,-0.1734229684948921,-0.1590852310627699
1782891181216360700,7.273360595703125,-0.023004151229560375,-0.2229150214165449,-0.07980506585985421
1782891181226382800,7.2833828125,0.20909926203191279,-0.21746143218576908,0.09097820178121328
1782891181236405200,7.2934052734375,0.5176327117621898,-0.20852935318946836,0.1736184910669923
1782891181246427600,7.303427734375,0.7047311543881892,-0.2431400633215904,0.11870032144337891
1782891181256449500,7.313449462890625,0.7023077266335487,-0.24042905079722404,0.12476473604887724
1782891181266471400,7.323471435546875,0.6581441752582788,-0.2176250983148813,0.22443507059067486
1782891181276493600,7.33349365234375,0.6240937293574214,-0.2408797171741724,0.25676848344057795
1782891181286515500,7.343515380859375,0.5238724829345941,-0.26231238130331036,0.20716361779421566
1782891181296537300,7.353537353515625,0.37019437161237,-0.255727742215991,0.12625322104096412
1782891181306559500,7.3635595703125,0.18553718465864658,-0.21631460023820398,0.017833178332448005
1782891181316581400,7.373581298828125,-0.1253194473221898,-0.205465873965621,-0.11573416511416434
1782891181326603500,7.383603515625,-0.39143852743208407,-0.15560966390669345,-0.17590075678527353
1782891181336625700,7.393625732421875,-0.5038485165596008,-0.09506430205106735,-0.13449001124948262
1782891181346648600,7.403648681640625,-0.4619976260408759,-0.10083762475550175,-0.05993482874184847
1782891181356670500,7.41367041015625,-0.33319384373426436,-0.1604401528030634,-0.032329905718564984
1782891181366692600,7.423692626953125,-0.11624328368008136,-0.18149872292280195,-0.034384500160813326
1782891181376714500,7.433714599609375,0.040358313873410226,-0.2071989813685417,-0.06685322982817887
1782891181386736400,7.443736328125,0.08453589377403259,-0.20358838965594767,-0.07665916904956102
1782891181396758500,7.453758544921875,0.08797025213688611,-0.2174807214081287,-0.07631313209086656
1782891181406780400,7.463780517578125,0.04648907171338797,-0.18970599477589128,-0.0815878576233983
1782891181416802300,7.47380224609375,0.0050192894667387,-0.16824819620549678,-0.1285916008606553
1782891181426824400,7.483824462890625,-0.03355973977446556,-0.14744973832666874,-0.13612053506076335
1782891181436846600,7.4938466796875,0.008054127117991448,-0.15482406648695468,-0.11558365072757006
1782891181446868500,7.503868408203125,0.07517214536219835,-0.15609773968458174,-0.11063538067042827
1782891181456890600,7.513890625,0.13334230251908302,-0.13306114749014378,-0.1940697429433465
1782891181466912500,7.52391259765625,0.08769523458778858,-0.13553309056162832,-0.2482625209018588
1782891181476934400,7.533934326171875,-0.055820086899399754,-0.20124445687830447,-0.15690233406573534
1782891181486956500,7.54395654296875,-0.1245160219848156,-0.22061609682440755,-0.012179098093509673
1782891181496978400,7.553978515625,-0.08296119180321693,-0.1898532942920923,-0.003490472464263439
1782891181507000300,7.564000244140625,-0.015655249771475793,-0.19727204611599444,-0.008995791882276534
1782891181517022500,7.5740224609375,0.026315467734634876,-0.19882219816744326,-0.010925590901076794
1782891181527044600,7.584044677734375,0.029613632497191428,-0.19034487720131874,-0.039164720174670216
1782891181537066500,7.59406640625,-0.039463703121244906,-0.17981296179294584,-0.05066021991819143
1782891181547088400,7.60408837890625,-0.07508008316457271,-0.18911504314541816,-0.007765957826375961
1782891181557110500,7.614110595703125,-0.07690028432905674,-0.16416180367469788,0.055311260594427585
1782891181567132400,7.62413232421875,-0.02677051802575588,-0.20215280389487741,0.02498889530599117
1782891181577154300,7.634154296875,0.06575754354596137,-0.24848025530576703,-0.06277677416950464
1782891181587177500,7.644177490234375,0.09459843810498714,-0.256011235332489,-0.11504296797960996
1782891181597199400,7.654199462890625,0.0819847479864955,-0.22760347149372098,-0.06517799009233713
1782891181607221200,7.66422119140625,0.08566752815246581,-0.2094908916980028,0.03939882119148969
1782891181617243600,7.67424365234375,0.07088555408418178,-0.23464111504554747,0.06915332346409558
1782891181627265500,7.684265625,0.05818243211656809,-0.22886779234111307,0.02581277890950441
1782891181637287400,7.694287353515625,-0.0010264204382896423,-0.18866145415902136,-0.04426058200895786
1782891181647309600,7.7043095703125,-0.12670301063507794,-0.16636778928637502,-0.09326865080595016
1782891181657331500,7.71433154296875,-0.2938420765548944,-0.14717384399473665,-0.14611527485251427
1782891181667353300,7.724353271484375,-0.42181203838586806,-0.10878478436768055,-0.09315028512328863
1782891181677375500,7.73437548828125,-0.41376492553055283,-0.10066343723237514,-0.07524959451258183
1782891181687397400,7.7443974609375,-0.26071663654446603,-0.07515607101023197,-0.08111790202409029
1782891181697419500,7.75441943359375,-0.08256254787445068,-0.06109773504137993,-0.0877028333723545
1782891181707441700,7.764441650390625,0.0250660521954298,-0.11623802298307419,-0.08051993613094091
1782891181717463600,7.774463623046875,0.09481441894322633,-0.16579788044393062,-0.034547581768035886
1782891181727485400,7.7844853515625,0.12818535814732313,-0.1388110893189907,0.0020583938345313073
1782891181737507600,7.794507568359375,0.20000000977516172,-0.12626257339119912,-0.007566928122937679
1782891181747529500,7.804529541015625,0.23031623758375644,-0.13597849624156952,0.009606032735109328
1782891181757551400,7.81455126953125,0.24017887542843816,-0.16503157224655152,0.0005275310054421424
1782891181767573500,7.824573486328125,0.20462065531313417,-0.20270634612441063,-0.04962532391250133
1782891181777595600,7.834595703125,0.14030483500808477,-0.1607306601822376,-0.07282967388927936
1782891181787617500,7.844617431640625,0.06915303120315075,-0.11831892091035842,-0.04167115003764629
1782891181797639400,7.854639404296875,0.020850480327010153,-0.12401800933480261,-0.02675970437079668
1782891181807661600,7.86466162109375,-0.04189911357462406,-0.10100772062540053,-0.07598229270130395
1782891181817684500,7.8746845703125,-0.06519932514131069,-0.07808452567756176,-0.099632340618968
1782891181827706600,7.88470654296875,-0.08201105147153138,-0.10721475857198237,-0.13472118965685367
1782891181837728500,7.894728515625,-0.09312953459620475,-0.15386954224109647,-0.1343643390432
1782891181847750400,7.90475048828125,-0.041599546106159686,-0.13488660935163496,-0.09838818577677011
1782891181857772500,7.9147724609375,0.016990005506575107,-0.15319441945850848,-0.06797375829070806
1782891181867794400,7.92479443359375,0.06001870763301849,-0.1714934617370367,-0.011366320405900477
1782891181877816300,7.93481640625,0.044805064149200914,-0.15052140085697174,-0.02574059045612812
1782891181887838500,7.94483837890625,0.012164192785322665,-0.15854863996803759,-0.06169014797657728
1782891181897860600,7.954860595703125,-0.01070785649716854,-0.16495090822577477,-0.0667939008563757
1782891181907882500,7.964882568359375,0.007200140637159347,-0.17246785972714423,-0.04795739070028066
1782891181917902600,7.974902587890625,0.03242489052563906,-0.15439736550748348,-0.0556307018071413
1782891181927925500,7.984925537109375,0.03255845377743244,-0.15874387027919293,-0.10818009647279977
1782891181937947400,7.994947509765625,-0.00840513251274824,-0.1196224047243595,-0.15509937629699705
1782891181947969500,8.004969482421876,-0.08611556418091058,-0.12423778956532477,-0.1360620828717947
1782891181957991400,8.014991455078125,-0.1438324246123433,-0.1379524266630411,-0.10483487769812345
1782891181968013600,8.025013671875,-0.1498845642581582,-0.15894786841869354,-0.05643529618829488
1782891181978035500,8.035035400390624,-0.0416077294126153,-0.16337094555795192,-0.04886895258724689
1782891181988057300,8.045057373046875,0.06589256810247898,-0.1594283454120159,-0.09288871157765388
1782891181998079500,8.05507958984375,0.1623082847625017,-0.20570435889661312,-0.11667232274711131
1782891182008101400,8.065101318359375,0.2304313883960247,-0.2019008749604225,-0.06731061820685863
1782891182018123300,8.075123291015625,0.23701193583011626,-0.19270985276699065,-0.09046265347450971
1782891182028145700,8.085145751953124,0.18866145415902136,-0.19401625919044016,-0.13141981002390385
1782891182038167600,8.09516748046875,0.14215601583272217,-0.18144027073383331,-0.10421411545127629
1782891182048189400,8.105189453125,0.09959551573991775,-0.17571663239002228,-0.05861380927115679
1782891182058211600,8.115211669921875,0.0461497567564249,-0.19526187533736228,-0.03418371689170599
1782891182068233500,8.1252333984375,-0.014600772282481193,-0.1755757626146078,-0.03016951281428337
1782891182078255400,8.13525537109375,-0.0780780959367752,-0.17085984000861643,-0.08616437175869941
1782891182088277500,8.145277587890625,-0.1457908652037382,-0.1627536904424429,-0.10355769736915826
1782891182098299400,8.15529931640625,-0.20870470975637434,-0.18067513158023357,-0.11460194621384143
1782891182108321500,8.165321533203125,-0.23357027094364166,-0.16614917809963226,-0.1143877189412713
1782891182118343700,8.17534375,-0.2337874208256602,-0.14980243893265724,-0.09600596681535244
1782891182128365600,8.185365478515624,-0.1898079938456416,-0.15208207430243492,-0.07795622312277554
1782891182138387500,8.195387451171875,-0.08178864089250563,-0.1754138500511646,-0.03148381028324365
1782891182148409300,8.205409423828126,-0.010330255356431006,-0.19890110862255095,-0.08040010914355517
1782891182158431500,8.215431396484375,0.029060674789547918,-0.19991174696981906,-0.09476999527961015
1782891182168454400,8.225454345703126,0.07796703677773476,-0.21054829179644582,-0.057390404956042765
1782891182178476500,8.2354765625,0.18310966525077818,-0.22354922766685484,-0.025328502523899076
1782891182188498400,8.24549853515625,0.24542437486648558,-0.22298574856519698,0.0013064064234495163
1782891182198520300,8.255520263671874,0.25822803459912536,-0.20277473518550396,-0.016427110926806925
1782891182208542500,8.26554248046875,0.18973405182659625,-0.2105459537088871,-0.03753945706039667
1782891182218564600,8.275564697265626,0.09259294350147247,-0.19638123475611208,-0.015110767631232737
1782891182228586500,8.28558642578125,-0.0001283025547862053,-0.20330606558322906,-0.03949906669557094
1782891182238607600,8.295607666015625,-0.06271949102431536,-0.1535118148446083,-0.07386749250441789
1782891182248629800,8.305629638671874,-0.17445815676152704,-0.12334873177111148,-0.11043693548887967
1782891182258651600,8.315651611328125,-0.23096768722981212,-0.1131260284423828,-0.11984686112999915
1782891182268673500,8.325673583984376,-0.26129209834486244,-0.11687573636472225,-0.1548605991050601
1782891182278696000,8.335696044921875,-0.2742573783800006,-0.12140695005357265,-0.18611644585132597
1782891182288717800,8.3457177734375,-0.241122878280282,-0.13412906898260116,-0.1618058881983161
1782891182298739700,8.35573974609375,-0.15894260772168636,-0.17018471722602843,-0.11295564031153917
1782891182308761900,8.365761962890625,-0.03314092984050512,-0.17326573210656643,-0.08011427793949842
1782891182318783700,8.37578369140625,0.11813771912455558,-0.1620212845146656,-0.06811813519746064
1782891182328805600,8.3858056640625,0.19661884290426968,-0.1720031648248434,-0.07042904248833656
1782891182338827800,8.395827880859375,0.21890198638290165,-0.19259236386716364,-0.047453532831370826
1782891182348849700,8.405849609375,0.20836773288697003,-0.22017186018824575,-0.07392068399637937
1782891182358871800,8.415871826171875,0.16056202561706304,-0.20541034438610076,-0.09620032034367322
1782891182368893700,8.425893798828126,0.07639262706786394,-0.18040099081397057,-0.13135492809414862
1782891182378915800,8.435915771484375,-0.005265373182296753,-0.18295476695001126,-0.14613397955298424
1782891182388937700,8.445937744140625,-0.07442892577946186,-0.1756464897632599,-0.1527969445735216
1782891182398961000,8.4559609375,-0.07537526671886444,-0.15584113457500934,-0.09155454036444426
1782891182408982800,8.465982666015625,-0.04711684822291135,-0.15286591815650463,-0.09470862048119306
1782891182419004700,8.476004638671874,-0.010842296531796455,-0.18716800073087214,-0.08361030336171388
1782891182429026800,8.48602685546875,0.04612111518383026,-0.2113765593141317,-0.08341507305055856
1782891182439048700,8.496048583984376,0.06989771209061145,-0.2066752497553825,-0.04784662380218505
1782891182449070600,8.506070556640625,0.06852700825929642,-0.19722236175537108,-0.049560441982746124
1782891182459092700,8.5160927734375,0.012190204009413718,-0.20368834289908408,-0.050584232072532175
1782891182469115000,8.526114990234374,-0.055286418414115905,-0.17824059790968894,-0.05205839627832174
1782891182479136800,8.53613671875,-0.08204173887073993,-0.18216566239893436,-0.08041764480024576
1782891182489158700,8.54615869140625,-0.08542465930730105,-0.17060615750849245,-0.059765317393839355
1782891182499180800,8.556180908203125,-0.07137187629640102,-0.14008534703850745,-0.014676175606250763
1782891182509202700,8.56620263671875,-0.08535188633203505,-0.08314473167657851,0.03335048093795776
1782891182519224600,8.576224609375,-0.0851949422046542,-0.09665303254723548,0.029167642295360563
1782891182529246700,8.586246826171875,-0.06779021841734648,-0.1372726277053356,0.012469897733628749
1782891182539268600,8.5962685546875,-0.026103578549623488,-0.14384791444242,-0.05086947875469923
1782891182549290800,8.606290771484375,-0.004968436062335968,-0.13435001825690268,-0.07877484602928161
1782891182559313000,8.61631298828125,-0.01784896042346954,-0.12694003426134587,-0.054662733557820316
1782891182569334800,8.626334716796874,0.03907704189121723,-0.11616671131253242,-0.03159516170322895
1782891182579356700,8.636356689453125,0.10697656590193509,-0.12778116126060485,-0.08969605301618576
1782891182589378800,8.64637890625,0.10858137075006961,-0.15107260499894618,-0.10672726731598377
1782891182599400700,8.656400634765625,0.07689502363204956,-0.18518880961239337,-0.09447218137681483
1782891182609422600,8.666422607421875,0.07059212409555912,-0.1763210280239582,-0.06164630883485078
1782891182619445800,8.67644580078125,0.09026800768524408,-0.20352935294508934,-0.026615327464044092
1782891182629467600,8.686467529296875,0.08611468739807605,-0.20443010117709637,-0.0028919220492243766
1782891182639489500,8.696489501953126,0.0719151893928647,-0.20672668768167496,-0.003385550785064697
1782891182649512000,8.706511962890625,0.03291384308636188,-0.2275374205201864,-0.03703793727904558
1782891182659533800,8.716533935546876,-0.038352819269895554,-0.22421908975243568,-0.02979512654393911
1782891182669555700,8.7265556640625,-0.11504559832811355,-0.21413258002400398,-0.06320902810692787
1782891182679577900,8.736577880859375,-0.21307693349123,-0.18532441869080066,-0.12255261295735835
1782891182689599700,8.746599853515624,-0.24022446813583373,-0.1498264043301344,-0.0904693754762411
1782891182699621600,8.75662158203125,-0.18868775764405726,-0.13814531888663767,-0.02770341496169567
1782891182709643800,8.766643798828126,-0.09801292272359133,-0.13730711449682712,0.019622107575833797
1782891182719665700,8.776665771484375,0.05172288071364164,-0.13232640347480773,0.027122400203347205
1782891182729687800,8.786687744140625,0.12845716082602737,-0.15109715491831302,-0.031088965746760365
1782891182739709700,8.796709716796874,0.17875380812883376,-0.16042729332149028,-0.06365706413537263
1782891182749731800,8.80673193359375,0.16430208892822265,-0.16019173099994657,-0.10595832877010107
1782891182759753700,8.816753662109376,0.13175357202291488,-0.16051730969250202,-0.0923036051660776
1782891182769775600,8.826775634765625,0.008918342731893063,-0.1735322740882635,-0.0834767401099205
1782891182779797800,8.8367978515625,-0.04181377337872982,-0.1546492944419384,-0.11024316648244857
1782891182789819600,8.846819580078124,-0.0871060365229845,-0.14046996244192123,-0.11978548633158206
1782891182799841500,8.856841552734375,-0.06551993539780378,-0.14175941773056983,-0.07786503770798445
1782891182809863700,8.86686376953125,-0.012702829706668852,-0.1139893672734499,-0.0689630615890026
1782891182819885800,8.8768857421875,0.06045680678933858,-0.12452186720371246,-0.06078267774283885
1782891182829907700,8.88690771484375,0.12125702018886804,-0.12139058344066142,-0.04254968643784523
1782891182839929900,8.896929931640624,0.1392579563036561,-0.12363631654083727,-0.025785306380689144
1782891182849951700,8.90695166015625,0.1401242177441716,-0.11143091496229171,-0.03703998310565948
1782891182859974700,8.916974609375,0.11857348019331693,-0.11914426581859588,-0.020241993039846418
1782891182869996800,8.926996826171875,0.055906303878128526,-0.10231120443940162,-0.006834229934215545
1782891182880018700,8.937018798828126,-0.025235271282494066,-0.11722586497664451,-0.021928923213481902
1782891182890040600,8.94704052734375,-0.15660247433632613,-0.1304927583068609,-0.07465425896793604
1782891182900062700,8.957062744140625,-0.24570962154865264,-0.08940262302756309,-0.09622165539264678
1782891182910084600,8.967084716796874,-0.26592794145196674,-0.10560732337534427,-0.11042524505108595
1782891182920106800,8.977106689453125,-0.17552198660075663,-0.15106149908304214,-0.12734861506223677
1782891182930129000,8.98712890625,-0.08698357918709516,-0.18188275380432606,-0.13725713787525892
1782891182940150800,8.99715087890625,-0.006752396869659423,-0.1840636049747467,-0.1319631231203675
1782891182950172700,9.007172607421875,0.04430968184769153,-0.1783253535836935,-0.13019172953367233
1782891182960194800,9.01719482421875,0.08369272094815969,-0.19280454531311988,-0.10853080960661173
1782891182970216700,9.027216796875,0.1132961243122816,-0.21432956390082836,-0.11541910781562327
1782891182980238600,9.037238525390626,0.09626549453437327,-0.18726970753967762,-0.07301467506736517
1782891182990260700,9.0472607421875,0.08294833232164382,-0.1723655683964491,-0.02437865445315838
1782891183000283000,9.057282958984375,0.07831716538965701,-0.16126023701429365,0.028384967485070228
1782891183010304800,9.0673046875,0.023402210636436938,-0.13146248012185097,0.004124094192683696
1782891183020326700,9.07732666015625,-0.051126083864271636,-0.13946166218221187,0.001218143618106842
1782891183030348800,9.087348876953126,-0.10925210961848497,-0.1616068584948778,-0.019765023177862166
1782891183040370700,9.09737060546875,-0.13690642474144696,-0.18134265557825563,-0.0599181698679924
1782891183050392600,9.107392578125,-0.09937865811884403,-0.1800549538552761,-0.0739890730574727
1782891183060414700,9.117414794921874,-0.040084465368092057,-0.16023673918545245,-0.09586831191033124
1782891183070436600,9.1274365234375,0.030236732831597328,-0.1706879905730486,-0.14790771122723817
1782891183080458800,9.137458740234376,0.06696224316060542,-0.21102701522409914,-0.1411672970563173
1782891183090481700,9.147481689453125,0.06555354540646076,-0.23189620025157928,-0.06481412521600723
1782891183100503800,9.15750390625,0.10189414807111025,-0.20171148986816406,-0.03422989412099123
1782891183110526000,9.16752587890625,0.11565934631228446,-0.17923720773160456,-0.0019388591080904006
1782891183120547800,9.1775478515625,0.0825268920391798,-0.16291151135265827,-0.04338876761049032
1782891183130569700,9.18756982421875,-0.005097615399956703,-0.16247311993539332,-0.1475751182720065
1782891183140591600,9.197591552734375,-0.13176876959204673,-0.15623802493810654,-0.17156243532001972
1782891183150613800,9.20761376953125,-0.20668430984467268,-0.15771686531901358,-0.12497019549310207
1782891183160635600,9.2176357421875,-0.14805121135115623,-0.15976269193291665,-0.08974602963775395
1782891183170657500,9.227657470703125,-0.042539165043830866,-0.11718904009759426,-0.08824263933748007
1782891183180679700,9.2376796875,0.03869388779252767,-0.10620879639983176,-0.0661249155536294
1782891183190701800,9.247701904296875,0.12014847442507744,-0.1384317346125841,-0.056260231882333755
1782891183200723700,9.2577236328125,0.1813578531473875,-0.17757073582410812,-0.05721095673590898
1782891183210745900,9.267745849609375,0.174945063495636,-0.17663725436627864,-0.03319762846380472
1782891183220767700,9.277767822265625,0.16456863090991972,-0.15866846695542336,-0.020310089839994907
1782891183230789600,9.28778955078125,0.07790478519648313,-0.15831892286539076,-0.04144815493673086
1782891183240812500,9.2978125,-0.07410130126029253,-0.17522388043701648,-0.034819968968629836
1782891183250834700,9.307834716796876,-0.1483352889895439,-0.15781272690892217,-0.003251403011381626
1782891183260856600,9.317856689453125,-0.08077215732634067,-0.12514964371323584,0.005939034660160541
1782891183270878500,9.32787841796875,-0.004470131151378154,-0.1563829863667488,-0.010019581972062586
1782891183280900600,9.337900634765624,0.06735679543614387,-0.16980536251962183,-0.011145371131598948
1782891183290922800,9.3479228515625,0.11771364849358797,-0.19455285028517244,-0.000391045144200325
1782891183300944600,9.357944580078126,0.11408873599469661,-0.20672785672545432,0.012814181126654148
1782891183310967800,9.3679677734375,0.057393327565491196,-0.22049451627135275,0.006146247670054435
1782891183320989700,9.37798974609375,0.0022129998743534085,-0.2230447852760553,0.005645020149648189
1782891183331011600,9.388011474609375,-0.05430471390038728,-0.22183073331117628,-0.027059564100205897
1782891183341033700,9.39803369140625,-0.0894067146807909,-0.1850081923484802,0.0020581015735864636
1782891183351055600,9.4080556640625,-0.10751315699666737,-0.1773708293378353,0.003734510353207588
1782891183361077500,9.418077392578125,-0.14433832830786705,-0.14378946225345135,-0.0701443803280592
1782891183371099600,9.428099609375,-0.14360738368481396,-0.12267653159797191,-0.13460691562741994
1782891183381121500,9.43812158203125,-0.10596095911860465,-0.10621873327195644,-0.1513338862836361
1782891183391143700,9.448143798828125,-0.062322892922163003,-0.08551555246114731,-0.15266425810456274
1782891183401165800,9.458165771484374,-0.08799217170774937,-0.11142214713394641,-0.1720794449314475
1782891183411187700,9.468187744140625,-0.0890624312877655,-0.11456044515967369,-0.18971154773384333
1782891183421209600,9.478209716796876,-0.08344722175449132,-0.12351005981266498,-0.20417437285035847
1782891183431231500,9.4882314453125,-0.07635112601369619,-0.09594809914827346,-0.07680559178292751
1782891183441253600,9.498253662109375,-0.01200841770172119,-0.10433248113393782,-0.024254443551599978
1782891183451275500,9.508275634765624,0.10077917256653308,-0.1182195521891117,0.02712736863940954
1782891183461297400,9.51829736328125,0.1780897912621498,-0.16524316917061804,0.03068973729610443
1782891183471319600,9.528319580078126,0.20250000989735126,-0.2157037748634815,0.006783961051702499
1782891183481341700,9.538341796875,0.17713965093046427,-0.2224316218137741,-0.04275952979624271
1782891183491363600,9.548363525390625,0.10760288110673427,-0.21046002899110317,-0.09983224710524082
1782891183501385700,9.5583857421875,0.05235591792017221,-0.18539514583945274,-0.09387158513516188
1782891183511407600,9.56840771484375,0.029735797572135923,-0.17794424531161784,-0.07757774519920349
1782891183521429500,9.578429443359376,0.02088847424983978,-0.18933482337594032,-0.05097498495578766
1782891183531451600,9.58845166015625,0.01490238557755947,-0.18950199663639067,-0.08582651810646057
1782891183541474600,9.598474609375,-0.011002163268625735,-0.18379180229604244,-0.1351838387325406
1782891183551496400,9.608496337890625,-0.06682809538692236,-0.18462825312018394,-0.16566694754064082
1782891183561518600,9.6185185546875,-0.11398790596872567,-0.16459551891684532,-0.13106997367292642
1782891183571540500,9.62854052734375,-0.12393237687796353,-0.13783143063187597,-0.07837357175201178
1782891183581562600,9.638562744140625,-0.09676146135777235,-0.14251052835881708,-0.04825608138591051
1782891183591584800,9.648584716796876,-0.015717793613672256,-0.14374270050227642,-0.0023866028755903245
1782891183601606700,9.658606689453125,0.042864451475441455,-0.1309206283301115,0.0048012628018856045
1782891183611628500,9.668628662109375,0.042997137944400306,-0.21163316442370414,-0.056286243106424806
1782891183621650700,9.678650634765624,0.03396890509724617,-0.21188626240193842,-0.07372048524916172
1782891183631672600,9.688672607421875,0.0669789020344615,-0.1851134062886238,-0.049772331167757505
1782891183641694500,9.698694580078126,0.10125964955985546,-0.17503683343231677,-0.014300328031182289
1782891183651716600,9.708716552734375,0.11612754834592341,-0.16213526628315447,-0.019584405913949013
1782891183661738800,9.71873876953125,0.06865121916085482,-0.1459428408950567,-0.046285950356721874
1782891183671760600,9.7287607421875,-0.023564707721769808,-0.15546996317505835,-0.09506371752917767
1782891183681782800,9.73878271484375,-0.0994797804057598,-0.19384733236432075,-0.11802315283417701
1782891183691804700,9.7488046875,-0.13420534908920526,-0.21114391960203646,-0.1499649360179901
1782891183701826600,9.75882666015625,-0.14199381100833416,-0.20468845985233783,-0.15504472350031137
1782891183711848400,9.768848388671875,-0.13465893807560206,-0.21858955943286418,-0.1393497262403369
1782891183721870600,9.77887060546875,-0.07660100912153721,-0.2272679559290409,-0.11737053414434194
1782891183731892500,9.788892578125,0.014492927993834018,-0.23588906928002834,-0.06929974619746208
1782891183741914600,9.79891455078125,0.13363982416093348,-0.20787118154168127,-0.052070963498950004
1782891183751936800,9.808936767578125,0.26227964807748794,-0.1643646327704191,-0.03186521081626415
1782891183761958700,9.818958740234375,0.3228665109872818,-0.15058978991806507,-0.039103345376253124
1782891183771981800,9.82898193359375,0.24432225884348152,-0.14433014500141142,-0.07748948239386082
1782891183782003700,9.839003662109375,0.15807985341250896,-0.11340776799321174,-0.02185848832577467
1782891183792025600,9.849025634765624,0.0838473269879818,-0.07526186947226524,0.0076326868355274195
1782891183802047500,9.859047607421875,-0.028720190788805482,-0.0035170682102441788,0.048643034876883026
1782891183812069600,9.869069580078126,-0.1430897895514965,0.06511924564242362,0.1285302260622382
1782891183822091500,9.879091552734375,-0.19865823977738617,0.06492167724370956,0.10797726737707852
1782891183832113400,9.889113525390625,-0.2949462384045124,0.04516249928474426,-0.007943652480840682
1782891183842135600,9.899135498046874,-0.2977621726080775,-0.05861468605399132,-0.15421353337317703
1782891183852157700,9.90915771484375,-0.21409867775440214,-0.10324234780967236,-0.19827128628641366
1782891183862179600,9.9191796875,-0.08355477378219366,-0.2269452998459339,-0.1876402944177389
1782891183872201700,9.92920166015625,0.11181932975798844,-0.3390425697624683,-0.22271365362554787
1782891183882223600,9.9392236328125,0.25207827979773284,-0.3682745094656944,-0.24558278029859065
1782891183892245500,9.94924560546875,0.30108167241960765,-0.4141799360722303,-0.24798604204803704
1782891183902267600,9.959267578125,0.28522797746658324,-0.39389585745632644,-0.18287994814813135
1782891183912289500,9.96928955078125,0.21116350108534096,-0.3325742505311966,-0.08409078035503625
1782891183922311400,9.9793115234375,0.08400222528874873,-0.2989677490055561,-0.02304185289144516
1782891183932333800,9.989333740234375,-0.02229366487264633,-0.23269173454344272,-0.01804740560501814
1782891183942355700,9.999355712890624,-0.10289981798231601,-0.18725626353621483,-0.05345920298695564
1782891183952377600,10.009377685546875,-0.24214812967479227,-0.15594459494948387,-0.04078150772154331
1782891183962399700,10.019399658203126,-0.36754590293020006,-0.15887889483571052,-0.07885112613588571
1782891183972421600,10.029421630859375,-0.384732015530765,-0.1675192974090576,-0.12674158907979727
1782891183982443500,10.039443603515625,-0.2988713028937578,-0.15374211646914482,-0.11895312716066836
1782891183992465400,10.04946533203125,-0.16941139476597308,-0.12983750926852225,-0.06594546733349561
1782891184002487600,10.059487548828125,-0.011418050593137741,-0.15182371562719343,-0.04914572370201349
1782891184012510500,10.069510498046874,0.09276742328554391,-0.1448193898230791,-0.012040566405653952
1782891184022532600,10.07953271484375,0.13692074552774428,-0.14366788170039652,0.015099661715328692
1782891184032554800,10.0895546875,0.1270779814273119,-0.16113924098312854,0.019864391899108887
1782891184042576600,10.09957666015625,0.12479454666525125,-0.14092355142831803,-0.007605798828601837
1782891184052598800,10.109598876953125,0.07133651272207499,-0.1390764622569084,-0.07613193030506372
1782891184062620700,10.11962060546875,0.080126260638237,-0.13659633587896822,-0.1336702192991972
1782891184072642600,10.129642578125,0.08219371456205844,-0.12863397869765758,-0.1236769408121705
1782891184082664400,10.13966455078125,0.012424889548122882,-0.1412245802015066,-0.08830313735306262
1782891184092686600,10.1496865234375,-0.02497282095402479,-0.13423486744463442,-0.06255611715614795
1782891184102708500,10.15970849609375,-0.031656244240701195,-0.1133002159655094,-0.048260173039138314
1782891184112730600,10.169730712890624,0.01159457620382309,-0.09952303502559662,-0.05704729060679674
1782891184122752800,10.179752685546875,0.01690145044028759,-0.12073299631476402,-0.05581745655089616
1782891184132774700,10.189774658203126,0.009098083212971687,-0.12218962486386298,-0.03886339914053678
1782891184142796500,10.199796630859375,0.03086041768789291,-0.11399871962368488,-0.03865940100103617
1782891184152818700,10.209818603515625,0.023483459179103373,-0.12566402297616006,-0.0204781398832798
1782891184162840600,10.219840576171874,0.02289016946107149,-0.16670388937294484,-0.015167466254532337
1782891184172862500,10.229862548828125,0.012501754176616668,-0.17101532283127308,-0.04157967236191034
1782891184182884600,10.239884521484376,0.02759440162926912,-0.16122691926658153,-0.06829056915491818
1782891184192906500,10.249906494140625,0.05364011251181364,-0.19475801746845245,-0.022566636595129964
1782891184202928600,10.2599287109375,0.0735839993879199,-0.20391163026094436,0.00046411038041114806
1782891184212950800,10.26995068359375,0.051716158711910244,-0.2226402961283922,-0.023073709334433076
1782891184222972700,10.27997265625,-0.03163578597456217,-0.2325134553670883,-0.0513195606097579
1782891184232995600,10.28999560546875,-0.1557692383825779,-0.2437988194912672,-0.1330667004480958
1782891184243016700,10.3000166015625,-0.2686383694544434,-0.23035481602847574,-0.13723083439022302
1782891184253038800,10.310038818359375,-0.26143998238295313,-0.19302081841230392,-0.08774316538274288
1782891184263060700,10.320060791015624,-0.2237947268605232,-0.15256781199276445,-0.03458937508314848
1782891184273082600,10.33008251953125,-0.1863616527840495,-0.12141571788191795,-0.01562485463321209
1782891184283105000,10.34010498046875,-0.11057663622051477,-0.14223463402688502,-0.020030396115779874
1782891184293127000,10.350126953125,-0.02202215445488691,-0.13288871353268622,-0.03469458902329206
1782891184303148800,10.360148681640625,0.06925210766345262,-0.10340835202634334,-0.07421469850689172
1782891184313171000,10.3701708984375,0.1367640936613083,-0.1109562831878662,-0.06420768375545739
1782891184323192800,10.38019287109375,0.1990723735362291,-0.11747779391109943,-0.020334055237472056
1782891184333214700,10.390214599609376,0.2518763274848461,-0.10500585035085677,-0.03163812406212091
1782891184343236900,10.40023681640625,0.20909049420356748,-0.13656068004369734,-0.1000678094267845
1782891184353258800,10.4102587890625,0.14487491940259933,-0.14162205508649348,-0.14607611188590525
1782891184363281000,10.420281005859374,0.11334522415101528,-0.12462182044684886,-0.15222089825123547
1782891184373302800,10.430302734375,0.11149462784826755,-0.11276537843644618,-0.09746171858161687
1782891184383325000,10.440324951171876,0.030726562175154685,-0.130250181722641,-0.04505144012570381
1782891184393346800,10.450346923828125,-0.0350000017106533,-0.13714929358661174,-0.04029050933420658
1782891184403368700,10.46036865234375,-0.05915536880195141,-0.13890344377756117,-0.057441258360445495
1782891184413390800,10.470390869140624,-0.02132248175293207,-0.14958441226780414,-0.04023030357956886
1782891184423412700,10.480412841796875,-0.00011924246549606323,-0.1732107870489359,-0.05689180778414011
1782891184433434600,10.4904345703125,0.05626520031839609,-0.16038111609220504,-0.05621726952344179
1782891184443456800,10.500456787109375,0.0348278600141406,-0.15203648159503935,-0.057013388337194916
1782891184453479000,10.51047900390625,-0.065575464977324,-0.2012555627942085,-0.04275923753529787
1782891184463500800,10.520500732421874,-0.10482318726032971,-0.19877368285059926,-0.030653789199888704
1782891184473524000,10.53052392578125,-0.07788871084451675,-0.17379472441673277,-0.026873686139285563
1782891184483545900,10.5405458984375,-0.036754444162547584,-0.17515023067891597,-0.0016264321580529211
1782891184493567700,10.550567626953125,-0.015287877763807772,-0.13874328477978706,0.013145312777161598
1782891184503590000,10.56058984375,0.023861352580785748,-0.1475906081020832,0.05122486806362867
1782891184513611800,10.57061181640625,-0.006518588113784789,-0.17759177861213682,0.055277066063880914
1782891184523633700,10.580633544921875,-0.03350976315289736,-0.1769528961867094,-0.013240882106125354
1782891184533655800,10.59065576171875,-0.043348727861046786,-0.17181319521069527,-0.06425795263797045
1782891184543677700,10.600677734375,-0.05117138431072235,-0.17341770779788493,-0.10703151095956563
1782891184553699800,10.610699951171876,-0.0587502951323986,-0.1624386331439018,-0.13216858256459235
1782891184563722000,10.620721923828125,-0.08130874842107295,-0.14783084659874438,-0.1136228720486164
1782891184573743900,10.630743896484375,-0.06583353139162063,-0.1449012228876352,-0.03342237713038921
1782891184583765800,10.640765869140624,0.008050912247598171,-0.14024609055817128,-0.022485972574353218
1782891184593788000,10.650787841796875,0.07460486686825751,-0.1744435437142849,-0.004631459192931652
1782891184603809800,10.660809814453126,0.15086626877188683,-0.20026596723496912,-0.03714665835052729
1782891184613831700,10.670831787109375,0.19292378777861593,-0.20590251181721686,-0.04489887991249561
1782891184623853800,10.680853759765625,0.132715695053339,-0.19372867442071437,-0.08491641752421855
1782891184633876000,10.6908759765625,0.049774376994371414,-0.1727437540590763,-0.06587766279429197
1782891184643897900,10.70089794921875,-0.033318332234025,-0.13999825327694415,-0.08286971412748098
1782891184653919700,10.710919677734376,-0.12366788072288036,-0.1432733294248581,-0.08986001140624285
1782891184663942000,10.72094189453125,-0.147193717738986,-0.10080781413912772,-0.04863806644082069
1782891184673963800,10.7309638671875,-0.12012041737437247,-0.08987842384576797,-0.06907587431371212
1782891184683985700,10.740985595703124,-0.05295096120387315,-0.1369254217028618,-0.07888765875399112
1782891184694007800,10.7510078125,-0.03798310917466879,-0.14458032037019727,-0.09109978233426809
1782891184704030700,10.76103076171875,0.014773790761828422,-0.14462006785869597,-0.09125964907109736
1782891184714052900,10.771052978515625,0.03586304828077554,-0.1548889484167099,-0.09058627985417843
1782891184724074800,10.78107470703125,0.027329905474185942,-0.1382967100560665,-0.10531097077727317
1782891184734096600,10.7910966796875,0.00816986245214939,-0.12469956185817718,-0.07510609438866377
1782891184744119000,10.801119140625,-0.01275222180634737,-0.12398527610898018,-0.017620996886491776
1782891184754141000,10.811140869140624,0.013426175545156,-0.11295710161626338,-0.008363631458580493
1782891184764162800,10.821162841796875,0.03451134141087532,-0.13000818966031075,-0.0018593641310930252
1782891184774184700,10.831184814453126,0.05504968704879284,-0.17253683331012726,-0.032787294097244735
1782891184784206800,10.841206787109375,0.06374620372354983,-0.2115302885711193,-0.05335661939531564
1782891184794228700,10.851228759765625,0.0734577426597476,-0.22810089962184427,-0.0853697142496705
1782891184804250600,10.861250732421874,0.07305559159964323,-0.21578034723103046,-0.1074450601965189
1782891184814272800,10.871272705078125,0.03325929552316666,-0.18365093252062797,-0.105917412237823
1782891184824295000,10.881294921875,0.002525426824390888,-0.16645079139471053,-0.10838701722174882
1782891184834316800,10.89131689453125,0.023061142113804816,-0.167746091902256,-0.11142331617772579
1782891184844339000,10.9013388671875,0.05340776506066322,-0.1455032804340124,-0.11746902608275413
1782891184854360800,10.91136083984375,0.02806640305519104,-0.17795242861807345,-0.07006693117767572
1782891184864382700,10.9213828125,0.08318857081830501,-0.17861936809420584,-0.028742694881558416
1782891184874404900,10.93140478515625,0.054608373022079465,-0.12712474317848682,-0.02724719562679529
1782891184884426800,10.9414267578125,-0.026570319278538226,-0.06488192975521087,-0.04274170187860727
1782891184894448600,10.95144873046875,-0.10279051238894461,-0.06556523584425449,-0.060117784093320366
1782891184904471000,10.961470947265624,-0.14467939683049916,-0.09308920258581638,-0.05334639026224613
1782891184914493000,10.971492919921875,-0.11535890206098556,-0.10960545310080051,-0.03783960905075073
1782891184924514800,10.981514892578126,-0.052309156168997284,-0.13355799109637737,-0.06760521723926068
1782891184934538000,10.9915380859375,0.009223755419254303,-0.15974164914488792,-0.07742576950788498
1782891184944559900,11.001559814453126,0.059471302883327005,-0.16322130795419215,-0.01196311725527048
1782891184954581800,11.011581787109375,0.1642842610105872,-0.20633798062503336,-0.02204524306952953
1782891184964604000,11.02160400390625,0.24793548090457915,-0.24607027155458927,-0.04133066603690386
1782891184974625800,11.031625732421874,0.26695348510742184,-0.21710078217983245,-0.07755582562834024
1782891184984647700,11.041647705078125,0.16825813307762144,-0.23391455433666705,-0.030054946523904797
1782891184994669800,11.051669921875,0.11203238798677921,-0.21201544173955916,-0.012422843721508979
1782891185004691700,11.061691650390625,0.11045008723139763,-0.15008885465860367,0.02860270188897848
1782891185014713900,11.0717138671875,0.10630699607729911,-0.17212357633411884,0.1000266006335616
1782891185024736000,11.081736083984374,0.07087707851678132,-0.11661679316759109,0.08375117313712835
1782891185034758000,11.0917578125,0.031055940259993073,-0.13072130636572837,0.041464521549642086
1782891185044779800,11.10177978515625,-0.18049013040214776,-0.20646949805021284,-0.07483283040523529
1782891185054801700,11.1118017578125,-0.300105520863831,-0.2222866603851318,-0.20914397795647383
1782891185064823800,11.12182373046875,-0.28207798900306225,-0.2245049209564924,-0.26342764906883237
1782891185074845700,11.131845703125,-0.2532821026295423,-0.20886954492926596,-0.2515253220900893
1782891185084867800,11.141867919921875,-0.22129940291345118,-0.17537351804077625,-0.24946195981949568
1782891185094890000,11.151889892578126,-0.27274288216382264,-0.18141572081446647,-0.30355244644731283
1782891185104912000,11.161911865234375,-0.5030781167089938,-0.18493395806849003,-0.39878187593221665
1782891185114933800,11.171933837890625,-0.6812675689533353,-0.027115385940670967,-0.31838790426850316
1782891185124956000,11.181955810546874,-0.6990472635328769,0.1176227553397417,-0.15222352859973906
1782891185134977800,11.191977783203125,-0.5010054020881652,0.06368015275001525,0.2240782199770212
1782891185144999700,11.201999755859376,-0.09633680620491504,-0.0414788423359394,0.20893442685902117
