time,seconds_elapsed,z,y,x
1782891174005500400,0.06250048828125,-0.6923370361328125,0.5672760009765625,-0.2212371826171875
1782891174015522300,0.072522216796875,-0.7016143798828125,0.590118408203125,-0.233856201171875
1782891174025544400,0.08254443359375,-0.7121124267578125,0.57989501953125,-0.2796630859375
1782891174035566300,0.09256640625,-0.703125,0.573028564453125,-0.3306732177734375
1782891174045588200,0.102588134765625,-0.66876220703125,0.5762939453125,-0.3918914794921875
1782891174055610400,0.1126103515625,-0.6577606201171875,0.5740966796875,-0.44854736328125
1782891174065632300,0.12263232421875,-0.676177978515625,0.5785369873046875,-0.5030364990234375
1782891174075654100,0.132654052734375,-0.683563232421875,0.6044158935546875,-0.5644683837890625
1782891174085676500,0.142676513671875,-0.6631927490234375,0.651336669921875,-0.6463165283203125
1782891174095698400,0.152698486328125,-0.6659698486328125,0.663604736328125,-0.6905517578125
1782891174105720300,0.16272021484375,-0.680450439453125,0.67449951171875,-0.6986541748046875
1782891174115742200,0.1727421875,-0.70025634765625,0.705535888671875,-0.6983642578125
1782891174125764400,0.182764404296875,-0.7415008544921875,0.7043914794921875,-0.69696044921875
1782891174135786200,0.1927861328125,-0.718536376953125,0.7268218994140625,-0.6570281982421875
1782891174145808100,0.20280810546875,-0.6191558837890625,0.7587432861328125,-0.6243438720703125
1782891174155830300,0.212830322265625,-0.4707183837890625,0.726287841796875,-0.6452484130859375
1782891174165852400,0.222852294921875,-0.2858123779296875,0.608154296875,-0.69903564453125
1782891174175874300,0.232874267578125,-0.1945648193359375,0.561065673828125,-0.7865447998046875
1782891174185896400,0.242896484375,-0.20489501953125,0.5976104736328125,-0.833282470703125
1782891174195919400,0.25291943359375,-0.230316162109375,0.648956298828125,-0.7217559814453125
1782891174205941200,0.262941162109375,-0.243316650390625,0.7017364501953125,-0.6346282958984375
1782891174215963400,0.27296337890625,-0.241119384765625,0.7341766357421875,-0.65960693359375
1782891174225985000,0.282985107421875,-0.23089599609375,0.7109832763671875,-0.7047882080078125
1782891174236007000,0.2930068359375,-0.2083282470703125,0.6886749267578125,-0.7270355224609375
1782891174246028800,0.30302880859375,-0.2005615234375,0.707855224609375,-0.758148193359375
1782891174256051000,0.313051025390625,-0.227325439453125,0.7291717529296875,-0.7293548583984375
1782891174266073000,0.323072998046875,-0.257354736328125,0.7524871826171875,-0.6631011962890625
1782891174276095000,0.333094970703125,-0.29547119140625,0.781097412109375,-0.604705810546875
1782891174286116900,0.343116943359375,-0.34307861328125,0.8126678466796875,-0.5590057373046875
1782891174296139000,0.353138916015625,-0.388092041015625,0.83843994140625,-0.52960205078125
1782891174306161000,0.363160888671875,-0.4315338134765625,0.8483428955078125,-0.521270751953125
1782891174316182800,0.373182861328125,-0.4598236083984375,0.8391571044921875,-0.50946044921875
1782891174326205000,0.383204833984375,-0.4608306884765625,0.8302154541015625,-0.5004119873046875
1782891174336226800,0.393226806640625,-0.428009033203125,0.81854248046875,-0.4893646240234375
1782891174346249000,0.4032490234375,-0.3688201904296875,0.8101043701171875,-0.4825439453125
1782891174356271000,0.41327099609375,-0.3102874755859375,0.7946014404296875,-0.4925384521484375
1782891174366293000,0.42329296875,-0.266510009765625,0.78570556640625,-0.5072479248046875
1782891174376315000,0.43331494140625,-0.2484893798828125,0.7806243896484375,-0.504547119140625
1782891174386337000,0.4433369140625,-0.2562713623046875,0.77020263671875,-0.5008544921875
1782891174396360000,0.45335986328125,-0.2797393798828125,0.7697296142578125,-0.5021514892578125
1782891174406381800,0.4633818359375,-0.304901123046875,0.769287109375,-0.505126953125
1782891174416404000,0.473404052734375,-0.3213043212890625,0.7709197998046875,-0.506805419921875
1782891174426425900,0.48342578125,-0.331298828125,0.776092529296875,-0.5018310546875
1782891174436447700,0.49344775390625,-0.3383636474609375,0.782379150390625,-0.496490478515625
1782891174446470100,0.50347021484375,-0.33795166015625,0.784759521484375,-0.4951934814453125
1782891174456492000,0.513491943359375,-0.3283843994140625,0.7863922119140625,-0.5048828125
1782891174466514000,0.523513916015625,-0.3199310302734375,0.7845458984375,-0.5231170654296875
1782891174476536000,0.5335361328125,-0.3156585693359375,0.7812347412109375,-0.5332489013671875
1782891174486558000,0.543557861328125,-0.317138671875,0.7762298583984375,-0.544586181640625
1782891174496579800,0.553579833984375,-0.305328369140625,0.768768310546875,-0.556915283203125
1782891174506602000,0.56360205078125,-0.2857666015625,0.76556396484375,-0.5639190673828125
1782891174516624000,0.573623779296875,-0.2694091796875,0.7631988525390625,-0.56170654296875
1782891174526646000,0.58364599609375,-0.26348876953125,0.7654266357421875,-0.551788330078125
1782891174536668000,0.59366796875,-0.25543212890625,0.7773284912109375,-0.5358734130859375
1782891174546690000,0.60368994140625,-0.2589263916015625,0.784759521484375,-0.5234375
1782891174556712000,0.6137119140625,-0.278045654296875,0.7837066650390625,-0.51959228515625
1782891174566733800,0.62373388671875,-0.302825927734375,0.7846221923828125,-0.5228118896484375
1782891174576756000,0.633755859375,-0.3188629150390625,0.7837066650390625,-0.529510498046875
1782891174586777900,0.64377783203125,-0.3219757080078125,0.7773590087890625,-0.5345611572265625
1782891174596801000,0.653801025390625,-0.319549560546875,0.770172119140625,-0.5371551513671875
1782891174606823000,0.663822998046875,-0.3173065185546875,0.770233154296875,-0.5328369140625
1782891174616844800,0.6738447265625,-0.3163299560546875,0.769775390625,-0.5290679931640625
1782891174626867000,0.683866943359375,-0.31585693359375,0.7694549560546875,-0.52325439453125
1782891174636889000,0.69388916015625,-0.3193359375,0.7720947265625,-0.5154876708984375
1782891174646911000,0.703910888671875,-0.3247833251953125,0.7748260498046875,-0.5116119384765625
1782891174656932900,0.713932861328125,-0.329681396484375,0.7779388427734375,-0.5065155029296875
1782891174666955000,0.723955078125,-0.3361358642578125,0.7765655517578125,-0.5053863525390625
1782891174676977000,0.733976806640625,-0.3386688232421875,0.776641845703125,-0.5119781494140625
1782891174686998800,0.743998779296875,-0.3416900634765625,0.7766265869140625,-0.5208587646484375
1782891174697021000,0.75402099609375,-0.3444366455078125,0.7730255126953125,-0.5233917236328125
1782891174707042800,0.764042724609375,-0.3446197509765625,0.7711944580078125,-0.526092529296875
1782891174717065000,0.77406494140625,-0.3459625244140625,0.7691497802734375,-0.5261688232421875
1782891174727087000,0.784087158203125,-0.344573974609375,0.7706146240234375,-0.520416259765625
1782891174737109000,0.79410888671875,-0.3420257568359375,0.77142333984375,-0.512969970703125
1782891174747131000,0.804130859375,-0.3348236083984375,0.7731781005859375,-0.51397705078125
1782891174757153000,0.814153076171875,-0.333404541015625,0.77532958984375,-0.514739990234375
1782891174767175000,0.8241748046875,-0.341583251953125,0.772857666015625,-0.517608642578125
1782891174777196800,0.83419677734375,-0.353485107421875,0.770111083984375,-0.521209716796875
1782891174787220000,0.844219970703125,-0.361419677734375,0.7695465087890625,-0.5205535888671875
1782891174797241900,0.854241943359375,-0.35943603515625,0.7737579345703125,-0.517364501953125
1782891174807263700,0.864263671875,-0.3552703857421875,0.779632568359375,-0.5106201171875
1782891174817286000,0.874285888671875,-0.3482818603515625,0.7817535400390625,-0.5028533935546875
1782891174827308000,0.88430810546875,-0.3432159423828125,0.779449462890625,-0.50274658203125
1782891174837330000,0.894329833984375,-0.337646484375,0.7784271240234375,-0.5088348388671875
1782891174847352000,0.90435205078125,-0.3316192626953125,0.774932861328125,-0.51397705078125
1782891174857374000,0.9143740234375,-0.3257904052734375,0.7740631103515625,-0.518463134765625
1782891174867395800,0.924395751953125,-0.317657470703125,0.7724456787109375,-0.5182952880859375
1782891174877418000,0.93441796875,-0.3123931884765625,0.77178955078125,-0.5191192626953125
1782891174887440000,0.94443994140625,-0.314910888671875,0.774322509765625,-0.5186920166015625
1782891174897462000,0.9544619140625,-0.317718505859375,0.776947021484375,-0.5142822265625
1782891174907484200,0.964484130859375,-0.3199462890625,0.7818450927734375,-0.5142059326171875
1782891174917506000,0.974506103515625,-0.328369140625,0.7876129150390625,-0.514312744140625
1782891174927528000,0.98452783203125,-0.342987060546875,0.79296875,-0.5119171142578125
1782891174937549800,0.9945498046875,-0.3575897216796875,0.7972259521484375,-0.5149383544921875
1782891174947572000,1.004572021484375,-0.3577880859375,0.7947998046875,-0.5207977294921875
1782891174957593900,1.01459375,-0.353424072265625,0.78619384765625,-0.523040771484375
1782891174967615700,1.02461572265625,-0.3401336669921875,0.778533935546875,-0.5240631103515625
1782891174977638000,1.034637939453125,-0.3234405517578125,0.7773895263671875,-0.5197601318359375
1782891174987660800,1.044660888671875,-0.3115386962890625,0.7784423828125,-0.513946533203125
1782891174997683000,1.054682861328125,-0.305389404296875,0.7797698974609375,-0.510162353515625
1782891175007705000,1.064705078125,-0.30645751953125,0.7786865234375,-0.50579833984375
1782891175017727000,1.07472705078125,-0.3091583251953125,0.78167724609375,-0.507476806640625
1782891175027748900,1.084748779296875,-0.31597900390625,0.7808990478515625,-0.510650634765625
1782891175037771000,1.09477099609375,-0.323699951171875,0.78094482421875,-0.5116119384765625
1782891175047793000,1.10479296875,-0.3268585205078125,0.782379150390625,-0.5115966796875
1782891175057814800,1.114814697265625,-0.3274993896484375,0.7813873291015625,-0.5128021240234375
1782891175067837000,1.1248369140625,-0.3292999267578125,0.7825469970703125,-0.5134735107421875
1782891175077858800,1.13485888671875,-0.3377685546875,0.7857513427734375,-0.5135955810546875
1782891175087881000,1.144880859375,-0.3423004150390625,0.7891693115234375,-0.5078125
1782891175097903000,1.154903076171875,-0.342254638671875,0.7886810302734375,-0.5051116943359375
1782891175107925000,1.164925048828125,-0.3361968994140625,0.7871551513671875,-0.5052947998046875
1782891175117947000,1.17494677734375,-0.3319091796875,0.7822265625,-0.505859375
1782891175127969000,1.184968994140625,-0.326385498046875,0.77801513671875,-0.5091094970703125
1782891175137991000,1.194990966796875,-0.3227386474609375,0.7754364013671875,-0.5090179443359375
1782891175148012800,1.2050126953125,-0.318206787109375,0.7735443115234375,-0.507476806640625
1782891175158035000,1.215034912109375,-0.317047119140625,0.776153564453125,-0.506134033203125
1782891175168057000,1.22505712890625,-0.3237762451171875,0.7797088623046875,-0.506103515625
1782891175178079000,1.235078857421875,-0.328826904296875,0.778961181640625,-0.508453369140625
1782891175188102000,1.245101806640625,-0.332183837890625,0.779937744140625,-0.5138702392578125
1782891175198124000,1.2551240234375,-0.3303680419921875,0.7759246826171875,-0.5163726806640625
1782891175208146000,1.26514599609375,-0.3271942138671875,0.7751922607421875,-0.5218963623046875
1782891175218168000,1.27516796875,-0.3253936767578125,0.77593994140625,-0.52264404296875
1782891175228190200,1.285190185546875,-0.323089599609375,0.7756805419921875,-0.5223541259765625
1782891175238212000,1.295212158203125,-0.3205108642578125,0.774810791015625,-0.5242919921875
1782891175248234200,1.305234130859375,-0.3197784423828125,0.7718048095703125,-0.524200439453125
1782891175258256100,1.315256103515625,-0.3214874267578125,0.7730712890625,-0.5239715576171875
1782891175268278000,1.325278076171875,-0.3216552734375,0.776458740234375,-0.5220794677734375
1782891175278300200,1.335300048828125,-0.3227691650390625,0.7766876220703125,-0.5201873779296875
1782891175288322300,1.345322265625,-0.33013916015625,0.7812652587890625,-0.5153045654296875
1782891175298344200,1.35534423828125,-0.3375396728515625,0.7843780517578125,-0.51275634765625
1782891175308366300,1.365366455078125,-0.3424530029296875,0.782684326171875,-0.5135498046875
1782891175318388200,1.37538818359375,-0.347747802734375,0.7817230224609375,-0.5125274658203125
1782891175328410000,1.38541015625,-0.3502197265625,0.7816009521484375,-0.5079498291015625
1782891175338432000,1.395431884765625,-0.348876953125,0.7834625244140625,-0.501007080078125
1782891175348454100,1.4054541015625,-0.3443450927734375,0.7842864990234375,-0.4953155517578125
1782891175358476300,1.415476318359375,-0.335906982421875,0.7853240966796875,-0.494659423828125
1782891175368498200,1.425498291015625,-0.3272857666015625,0.7826995849609375,-0.4918060302734375
1782891175378520300,1.435520263671875,-0.3229522705078125,0.7821807861328125,-0.490234375
1782891175388543200,1.445543212890625,-0.3203277587890625,0.783172607421875,-0.488372802734375
1782891175398565400,1.4555654296875,-0.31903076171875,0.781402587890625,-0.493194580078125
1782891175408587300,1.465587158203125,-0.3228302001953125,0.7794647216796875,-0.497894287109375
1782891175418609200,1.475609130859375,-0.3322296142578125,0.7825927734375,-0.5028076171875
1782891175428631300,1.48563134765625,-0.339935302734375,0.784393310546875,-0.50567626953125
1782891175438653200,1.495653076171875,-0.346405029296875,0.78790283203125,-0.5064239501953125
1782891175448675000,1.505675048828125,-0.350067138671875,0.7888946533203125,-0.5072784423828125
1782891175458697000,1.515697021484375,-0.34747314453125,0.7874298095703125,-0.5100860595703125
1782891175468719400,1.52571923828125,-0.34234619140625,0.7835845947265625,-0.512359619140625
1782891175478741200,1.5357412109375,-0.3366546630859375,0.7828826904296875,-0.51470947265625
1782891175488763100,1.54576318359375,-0.33209228515625,0.7821044921875,-0.5158233642578125
1782891175498785300,1.555785400390625,-0.322784423828125,0.78192138671875,-0.5131072998046875
1782891175508807200,1.56580712890625,-0.3103179931640625,0.7807464599609375,-0.5102081298828125
1782891175518829000,1.5758291015625,-0.30291748046875,0.782958984375,-0.5070953369140625
1782891175528851200,1.585851318359375,-0.2934722900390625,0.780914306640625,-0.505401611328125
1782891175538873000,1.595873046875,-0.2878570556640625,0.7810211181640625,-0.5056304931640625
1782891175548895200,1.605895263671875,-0.2911224365234375,0.78204345703125,-0.506072998046875
1782891175558917400,1.61591748046875,-0.299163818359375,0.7845001220703125,-0.5092010498046875
1782891175568939300,1.625939208984375,-0.31268310546875,0.7914886474609375,-0.509429931640625
1782891175578961200,1.635961181640625,-0.321868896484375,0.79595947265625,-0.50982666015625
1782891175588983300,1.6459833984375,-0.3253936767578125,0.79779052734375,-0.5113677978515625
1782891175599005200,1.656005126953125,-0.3261566162109375,0.7970733642578125,-0.5166015625
1782891175609028000,1.666028076171875,-0.324493408203125,0.7924957275390625,-0.5181427001953125
1782891175619050200,1.67605029296875,-0.32244873046875,0.7901611328125,-0.5205535888671875
1782891175629072100,1.686072021484375,-0.3223876953125,0.789031982421875,-0.5152435302734375
1782891175639094000,1.696093994140625,-0.322906494140625,0.7864837646484375,-0.5095367431640625
1782891175649116200,1.7061162109375,-0.32470703125,0.7874603271484375,-0.5055694580078125
1782891175659138300,1.71613818359375,-0.325347900390625,0.7880859375,-0.5019378662109375
1782891175669160200,1.72616015625,-0.330352783203125,0.78662109375,-0.496246337890625
1782891175679182300,1.736182373046875,-0.330780029296875,0.7828216552734375,-0.4998016357421875
1782891175689204200,1.746204345703125,-0.331573486328125,0.782806396484375,-0.498931884765625
1782891175699226000,1.75622607421875,-0.3277435302734375,0.78204345703125,-0.5013885498046875
1782891175709248300,1.766248291015625,-0.3243408203125,0.7806396484375,-0.5038604736328125
1782891175719270100,1.776270263671875,-0.321868896484375,0.7867889404296875,-0.5003662109375
1782891175729292000,1.7862919921875,-0.32720947265625,0.785186767578125,-0.500091552734375
1782891175739314200,1.796314208984375,-0.333770751953125,0.7867431640625,-0.5041961669921875
1782891175749336300,1.80633642578125,-0.3372802734375,0.7884979248046875,-0.50482177734375
1782891175759358200,1.816358154296875,-0.3390655517578125,0.789398193359375,-0.504058837890625
1782891175769380000,1.826380126953125,-0.3415679931640625,0.786895751953125,-0.5066375732421875
1782891175779402200,1.83640234375,-0.3407135009765625,0.793487548828125,-0.5034332275390625
1782891175789424000,1.846424072265625,-0.3350067138671875,0.796142578125,-0.500732421875
1782891175799446000,1.856446044921875,-0.3251800537109375,0.7955474853515625,-0.5012359619140625
1782891175809468200,1.86646826171875,-0.317352294921875,0.79547119140625,-0.5059814453125
1782891175819491000,1.876490966796875,-0.311981201171875,0.7933807373046875,-0.509918212890625
1782891175829513000,1.886512939453125,-0.3127899169921875,0.790130615234375,-0.51153564453125
1782891175839535400,1.896535400390625,-0.3135528564453125,0.78558349609375,-0.516082763671875
1782891175849557200,1.90655712890625,-0.3140869140625,0.7862091064453125,-0.5147552490234375
1782891175859579100,1.9165791015625,-0.317474365234375,0.7850189208984375,-0.51556396484375
1782891175869601300,1.926601318359375,-0.3177642822265625,0.785369873046875,-0.5120849609375
1782891175879623200,1.936623046875,-0.321624755859375,0.7847900390625,-0.506195068359375
1782891175889645000,1.94664501953125,-0.324371337890625,0.78485107421875,-0.4998931884765625
1782891175899667200,1.956667236328125,-0.3243865966796875,0.7852630615234375,-0.5018310546875
1782891175909689000,1.966689208984375,-0.326690673828125,0.783447265625,-0.5043487548828125
1782891175919711200,1.976711181640625,-0.3309478759765625,0.784576416015625,-0.5058746337890625
1782891175929733400,1.9867333984375,-0.33380126953125,0.7867431640625,-0.508514404296875
1782891175939755300,1.99675537109375,-0.33544921875,0.788604736328125,-0.502838134765625
1782891175949777200,2.006777099609375,-0.338623046875,0.7892913818359375,-0.5012664794921875
1782891175959799300,2.01679931640625,-0.339202880859375,0.7881011962890625,-0.504425048828125
1782891175969821200,2.0268212890625,-0.3328399658203125,0.7853546142578125,-0.50732421875
1782891175979843000,2.036843017578125,-0.3268585205078125,0.7853851318359375,-0.5088348388671875
1782891175989865200,2.046865234375,-0.326080322265625,0.783477783203125,-0.5071258544921875
1782891175999887000,2.05688720703125,-0.329071044921875,0.7837371826171875,-0.502899169921875
1782891176009909200,2.0669091796875,-0.3287353515625,0.7840118408203125,-0.503662109375
1782891176019931100,2.07693115234375,-0.3277740478515625,0.7825164794921875,-0.5030364990234375
1782891176029954300,2.086954345703125,-0.32574462890625,0.78424072265625,-0.503570556640625
1782891176039976200,2.09697607421875,-0.32568359375,0.7854766845703125,-0.50390625
1782891176049998300,2.106998291015625,-0.32904052734375,0.7884674072265625,-0.50140380859375
1782891176060020200,2.117020263671875,-0.328765869140625,0.7897491455078125,-0.501922607421875
1782891176070042000,2.1270419921875,-0.324127197265625,0.78759765625,-0.5034637451171875
1782891176080064300,2.137064208984375,-0.3165740966796875,0.782806396484375,-0.5098114013671875
1782891176090086100,2.147086181640625,-0.308746337890625,0.7806854248046875,-0.5130615234375
1782891176100108000,2.15710791015625,-0.3062896728515625,0.7766571044921875,-0.5103759765625
1782891176110130200,2.167130126953125,-0.3122406005859375,0.7755126953125,-0.509490966796875
1782891176120152300,2.17715234375,-0.320220947265625,0.777618408203125,-0.509857177734375
1782891176130174200,2.18717431640625,-0.33056640625,0.7781219482421875,-0.5087432861328125
1782891176140196000,2.197196044921875,-0.3367919921875,0.7808380126953125,-0.508575439453125
1782891176150218200,2.20721826171875,-0.3396148681640625,0.78375244140625,-0.50927734375
1782891176160240000,2.217240234375,-0.3397064208984375,0.788330078125,-0.506195068359375
1782891176170262000,2.227261962890625,-0.3394317626953125,0.788909912109375,-0.507232666015625
1782891176180284200,2.2372841796875,-0.341888427734375,0.7891845703125,-0.5091400146484375
1782891176190306300,2.247306396484375,-0.3410186767578125,0.787750244140625,-0.5098724365234375
1782891176200328200,2.257328125,-0.3343048095703125,0.7855987548828125,-0.5142364501953125
1782891176210350300,2.267350341796875,-0.328948974609375,0.7847747802734375,-0.51434326171875
1782891176220372200,2.277372314453125,-0.3272705078125,0.7804718017578125,-0.512176513671875
1782891176230393900,2.287393798828125,-0.3276824951171875,0.78204345703125,-0.5101776123046875
1782891176240416800,2.297416748046875,-0.332305908203125,0.7858734130859375,-0.5052337646484375
1782891176250439000,2.30743896484375,-0.3382415771484375,0.7845916748046875,-0.501922607421875
1782891176260460800,2.317460693359375,-0.3427734375,0.7863311767578125,-0.500518798828125
1782891176270482700,2.327482666015625,-0.339935302734375,0.7875823974609375,-0.5019989013671875
1782891176280504600,2.337504638671875,-0.33538818359375,0.7866668701171875,-0.503875732421875
1782891176290527000,2.34752685546875,-0.3268890380859375,0.7850189208984375,-0.5040435791015625
1782891176300548900,2.357548828125,-0.32061767578125,0.78466796875,-0.508392333984375
1782891176310570800,2.36757080078125,-0.3148193359375,0.783294677734375,-0.511077880859375
1782891176320593000,2.377593017578125,-0.3111419677734375,0.77972412109375,-0.5120697021484375
1782891176330614800,2.38761474609375,-0.3114471435546875,0.7784271240234375,-0.5109405517578125
1782891176340636700,2.39763671875,-0.315887451171875,0.7776947021484375,-0.508514404296875
1782891176350658800,2.407658935546875,-0.3193817138671875,0.7795867919921875,-0.504608154296875
1782891176360680700,2.4176806640625,-0.3224334716796875,0.779083251953125,-0.5043487548828125
1782891176370702800,2.427702880859375,-0.3254547119140625,0.7824249267578125,-0.507293701171875
1782891176380725000,2.43772509765625,-0.33087158203125,0.7859039306640625,-0.5065460205078125
1782891176390747000,2.447746826171875,-0.3399505615234375,0.7854766845703125,-0.50762939453125
1782891176400768800,2.457768798828125,-0.3470458984375,0.7851104736328125,-0.5102996826171875
1782891176410791000,2.467791015625,-0.3497467041015625,0.7863616943359375,-0.513702392578125
1782891176420812800,2.477812744140625,-0.3460235595703125,0.785186767578125,-0.5125579833984375
1782891176430834700,2.487834716796875,-0.3382415771484375,0.77984619140625,-0.51220703125
1782891176440856600,2.497856689453125,-0.3343658447265625,0.776611328125,-0.5120697021484375
1782891176450879000,2.50787890625,-0.32574462890625,0.7784576416015625,-0.5121612548828125
1782891176460901600,2.517901611328125,-0.319244384765625,0.7776031494140625,-0.5144805908203125
1782891176470923800,2.527923828125,-0.3173828125,0.777679443359375,-0.5139617919921875
1782891176480946000,2.53794580078125,-0.3193817138671875,0.779449462890625,-0.5114288330078125
1782891176490967800,2.5479677734375,-0.3219146728515625,0.7838134765625,-0.5072784423828125
1782891176500990000,2.557989990234375,-0.326202392578125,0.7824554443359375,-0.5053558349609375
1782891176511011800,2.56801171875,-0.3282928466796875,0.7801361083984375,-0.506927490234375
1782891176521033700,2.57803369140625,-0.3310394287109375,0.7793731689453125,-0.5127716064453125
1782891176531055900,2.588055908203125,-0.334320068359375,0.7764129638671875,-0.516387939453125
1782891176541077800,2.598077880859375,-0.3413848876953125,0.7763824462890625,-0.5155181884765625
1782891176551100000,2.608099853515625,-0.3489837646484375,0.7780609130859375,-0.510772705078125
1782891176561121800,2.618121826171875,-0.3479156494140625,0.778167724609375,-0.5071258544921875
1782891176571144000,2.62814404296875,-0.342193603515625,0.7804412841796875,-0.5029449462890625
1782891176581165800,2.638165771484375,-0.335601806640625,0.7788238525390625,-0.5015411376953125
1782891176591187700,2.648187744140625,-0.3275604248046875,0.7749176025390625,-0.5032958984375
1782891176601209900,2.6582099609375,-0.3217010498046875,0.771240234375,-0.5052337646484375
1782891176611231700,2.668231689453125,-0.3170318603515625,0.7690582275390625,-0.5083465576171875
1782891176621253600,2.678253662109375,-0.3185882568359375,0.7670745849609375,-0.5081329345703125
1782891176631275800,2.68827587890625,-0.3247222900390625,0.7683258056640625,-0.5063629150390625
1782891176641298000,2.6982978515625,-0.3350982666015625,0.773895263671875,-0.5013885498046875
1782891176651319800,2.70831982421875,-0.3407135009765625,0.7794189453125,-0.498931884765625
1782891176661343000,2.718343017578125,-0.3428192138671875,0.786468505859375,-0.5001068115234375
1782891176671364900,2.72836474609375,-0.3419342041015625,0.7872467041015625,-0.501617431640625
1782891176681386800,2.73838671875,-0.33685302734375,0.78765869140625,-0.5038604736328125
1782891176691409000,2.748408935546875,-0.3311309814453125,0.787261962890625,-0.512176513671875
1782891176701430800,2.7584306640625,-0.326202392578125,0.7826385498046875,-0.516357421875
1782891176711452700,2.76845263671875,-0.3231964111328125,0.7833099365234375,-0.5193939208984375
1782891176721474800,2.778474853515625,-0.328948974609375,0.783294677734375,-0.5235443115234375
1782891176731496700,2.78849658203125,-0.3376007080078125,0.78424072265625,-0.5261383056640625
1782891176741518800,2.798518798828125,-0.34381103515625,0.78387451171875,-0.5241241455078125
1782891176751541000,2.808541015625,-0.3490447998046875,0.7821044921875,-0.520111083984375
1782891176761563000,2.81856298828125,-0.345977783203125,0.7816314697265625,-0.5166015625
1782891176771584800,2.828584716796875,-0.340606689453125,0.7806243896484375,-0.509124755859375
1782891176781607000,2.83860693359375,-0.3297882080078125,0.7825927734375,-0.505157470703125
1782891176791628800,2.84862890625,-0.3239288330078125,0.7841033935546875,-0.5030670166015625
1782891176801650700,2.858650634765625,-0.319915771484375,0.7825469970703125,-0.5029296875
1782891176811672800,2.8686728515625,-0.322967529296875,0.780914306640625,-0.5063629150390625
1782891176821695000,2.878695068359375,-0.328277587890625,0.781829833984375,-0.5094146728515625
1782891176831716900,2.888716796875,-0.3307952880859375,0.78387451171875,-0.5106048583984375
1782891176841738800,2.89873876953125,-0.334014892578125,0.7846221923828125,-0.5119171142578125
1782891176851761000,2.908760986328125,-0.332122802734375,0.7858123779296875,-0.508941650390625
1782891176861782800,2.91878271484375,-0.3308563232421875,0.7855377197265625,-0.5108184814453125
1782891176871804700,2.9288046875,-0.32867431640625,0.7848968505859375,-0.5081939697265625
1782891176881827800,2.938827880859375,-0.3262939453125,0.7843170166015625,-0.5076904296875
1782891176891849700,2.948849609375,-0.3257904052734375,0.781463623046875,-0.5075531005859375
1782891176901871900,2.958871826171875,-0.325775146484375,0.77899169921875,-0.507049560546875
1782891176911893800,2.968893798828125,-0.3298797607421875,0.7802734375,-0.5081634521484375
1782891176921915600,2.97891552734375,-0.335052490234375,0.7789764404296875,-0.506103515625
1782891176931937800,2.988937744140625,-0.3406524658203125,0.781341552734375,-0.5069122314453125
1782891176941960000,2.9989599609375,-0.34307861328125,0.78424072265625,-0.510986328125
1782891176951981800,3.00898193359375,-0.34332275390625,0.78582763671875,-0.5085601806640625
1782891176962003700,3.019003662109375,-0.338134765625,0.7877197265625,-0.5080413818359375
1782891176972025900,3.02902587890625,-0.3313446044921875,0.78680419921875,-0.5052032470703125
1782891176982047700,3.0390478515625,-0.3279571533203125,0.7872772216796875,-0.502288818359375
1782891176992069600,3.049069580078125,-0.324676513671875,0.787567138671875,-0.502105712890625
1782891177002091800,3.059091796875,-0.324615478515625,0.7862396240234375,-0.5026397705078125
1782891177012114000,3.069114013671875,-0.32476806640625,0.7867889404296875,-0.5047607421875
1782891177022135800,3.0791357421875,-0.3232879638671875,0.786285400390625,-0.50799560546875
1782891177032158000,3.089157958984375,-0.325836181640625,0.78717041015625,-0.50982666015625
1782891177042179800,3.099179931640625,-0.3316497802734375,0.788330078125,-0.5104522705078125
1782891177052201700,3.10920166015625,-0.3352508544921875,0.7851715087890625,-0.5119171142578125
1782891177062224000,3.119223876953125,-0.339385986328125,0.7823486328125,-0.51104736328125
1782891177072245800,3.129245849609375,-0.3348846435546875,0.7832794189453125,-0.5114593505859375
1782891177082267600,3.139267578125,-0.331939697265625,0.7847442626953125,-0.5070953369140625
1782891177092290800,3.149290771484375,-0.3320465087890625,0.7863006591796875,-0.501220703125
1782891177102312700,3.159312744140625,-0.332611083984375,0.787322998046875,-0.5012969970703125
1782891177112334800,3.1693349609375,-0.33087158203125,0.786346435546875,-0.502593994140625
1782891177122357000,3.17935693359375,-0.331878662109375,0.78424072265625,-0.5082244873046875
1782891177132379000,3.18937890625,-0.332427978515625,0.783355712890625,-0.51458740234375
1782891177142400800,3.19940087890625,-0.330963134765625,0.7786407470703125,-0.514892578125
1782891177152423000,3.2094228515625,-0.3298187255859375,0.77752685546875,-0.5140228271484375
1782891177162444800,3.21944482421875,-0.326141357421875,0.779632568359375,-0.5081329345703125
1782891177172466700,3.229466796875,-0.3252716064453125,0.7820587158203125,-0.502471923828125
1782891177182488800,3.23948876953125,-0.3276214599609375,0.7847900390625,-0.4949188232421875
1782891177192510700,3.2495107421875,-0.3290557861328125,0.7880706787109375,-0.4912872314453125
1782891177202532900,3.259532958984375,-0.330291748046875,0.7864837646484375,-0.4906158447265625
1782891177212555000,3.269554931640625,-0.33087158203125,0.7857818603515625,-0.493743896484375
1782891177222577000,3.279576904296875,-0.3287506103515625,0.785552978515625,-0.4957733154296875
1782891177232599600,3.289599609375,-0.3296661376953125,0.7852630615234375,-0.499664306640625
1782891177242621400,3.299621337890625,-0.3308563232421875,0.7844696044921875,-0.5026092529296875
1782891177252643300,3.309643310546875,-0.3288116455078125,0.784088134765625,-0.5016632080078125
1782891177262665500,3.31966552734375,-0.3286895751953125,0.7867431640625,-0.504302978515625
1782891177272687400,3.329687255859375,-0.329925537109375,0.7860565185546875,-0.5052032470703125
1782891177282709200,3.339709228515625,-0.3319854736328125,0.7838897705078125,-0.5059661865234375
1782891177292731600,3.349731689453125,-0.3310699462890625,0.783843994140625,-0.5085296630859375
1782891177302753500,3.35975341796875,-0.3302764892578125,0.7831573486328125,-0.5070953369140625
1782891177312776400,3.3697763671875,-0.330169677734375,0.7845001220703125,-0.505828857421875
1782891177322798600,3.379798583984375,-0.3292694091796875,0.7840423583984375,-0.5034637451171875
1782891177332820500,3.389820556640625,-0.328399658203125,0.7825775146484375,-0.5018463134765625
1782891177342842400,3.39984228515625,-0.3263702392578125,0.782318115234375,-0.499176025390625
1782891177352864500,3.409864501953125,-0.3173065185546875,0.7811737060546875,-0.4954986572265625
1782891177362886400,3.419886474609375,-0.3187255859375,0.782684326171875,-0.4917755126953125
1782891177372908300,3.429908203125,-0.31658935546875,0.785552978515625,-0.4910430908203125
1782891177382930400,3.439930419921875,-0.3139801025390625,0.7877197265625,-0.4894256591796875
1782891177392952300,3.449952392578125,-0.315673828125,0.7892303466796875,-0.49517822265625
1782891177402974500,3.459974365234375,-0.324737548828125,0.7898406982421875,-0.501708984375
1782891177412996600,3.46999658203125,-0.3335418701171875,0.7913360595703125,-0.50653076171875
1782891177423018500,3.4800185546875,-0.341217041015625,0.7929534912109375,-0.51129150390625
1782891177433040400,3.490040283203125,-0.3456268310546875,0.793243408203125,-0.510772705078125
1782891177443062500,3.5000625,-0.3481597900390625,0.79498291015625,-0.51141357421875
1782891177453084400,3.51008447265625,-0.34490966796875,0.7972412109375,-0.5093536376953125
1782891177463106300,3.520106201171875,-0.3386077880859375,0.79791259765625,-0.5106658935546875
1782891177473128400,3.53012841796875,-0.33367919921875,0.7936859130859375,-0.509857177734375
1782891177483150600,3.540150634765625,-0.3244171142578125,0.793853759765625,-0.5119476318359375
1782891177493172500,3.55017236328125,-0.318511962890625,0.7913818359375,-0.512115478515625
1782891177503194400,3.5601943359375,-0.317230224609375,0.7866973876953125,-0.51141357421875
1782891177513216500,3.570216552734375,-0.3158721923828125,0.7862548828125,-0.5084228515625
1782891177523238400,3.58023828125,-0.31634521484375,0.7883758544921875,-0.5032958984375
1782891177533261600,3.590261474609375,-0.3175201416015625,0.7881317138671875,-0.500579833984375
1782891177543283500,3.600283447265625,-0.31927490234375,0.7863922119140625,-0.4984588623046875
1782891177553305300,3.610305419921875,-0.32122802734375,0.784393310546875,-0.4988250732421875
1782891177563327500,3.620327392578125,-0.3237152099609375,0.78363037109375,-0.499237060546875
1782891177573349400,3.630349365234375,-0.3274688720703125,0.78271484375,-0.4986572265625
1782891177583371500,3.64037158203125,-0.3334197998046875,0.784454345703125,-0.49847412109375
1782891177593393400,3.650393310546875,-0.3418731689453125,0.78704833984375,-0.495635986328125
1782891177603415600,3.66041552734375,-0.346282958984375,0.787353515625,-0.498382568359375
1782891177613437400,3.6704375,-0.34527587890625,0.7873992919921875,-0.4977874755859375
1782891177623459300,3.680459228515625,-0.340911865234375,0.785980224609375,-0.5019073486328125
1782891177633481500,3.6904814453125,-0.333709716796875,0.7860565185546875,-0.501800537109375
1782891177643503400,3.70050341796875,-0.32861328125,0.785400390625,-0.4996795654296875
1782891177653525200,3.710525146484375,-0.326751708984375,0.787322998046875,-0.49774169921875
1782891177663547400,3.72054736328125,-0.3251953125,0.787200927734375,-0.4950408935546875
1782891177673569500,3.730569580078125,-0.323211669921875,0.7867584228515625,-0.493408203125
1782891177683591400,3.74059130859375,-0.3232421875,0.7901763916015625,-0.4971160888671875
1782891177693613600,3.750613525390625,-0.32379150390625,0.7884979248046875,-0.5005645751953125
1782891177703635500,3.760635498046875,-0.32330322265625,0.7871246337890625,-0.501312255859375
1782891177713657300,3.7706572265625,-0.32476806640625,0.790069580078125,-0.5033721923828125
1782891177723679500,3.780679443359375,-0.3292694091796875,0.787689208984375,-0.5050201416015625
1782891177733701400,3.790701416015625,-0.332550048828125,0.787872314453125,-0.504364013671875
1782891177743723500,3.8007236328125,-0.33367919921875,0.7891693115234375,-0.5075225830078125
1782891177753745700,3.81074560546875,-0.3310089111328125,0.7873382568359375,-0.504119873046875
1782891177763768300,3.820768310546875,-0.32720947265625,0.787750244140625,-0.50384521484375
1782891177773790500,3.83079052734375,-0.3222808837890625,0.787750244140625,-0.505462646484375
1782891177783812600,3.8408125,-0.32110595703125,0.7870330810546875,-0.5069122314453125
1782891177793834500,3.85083447265625,-0.3228302001953125,0.78564453125,-0.507049560546875
1782891177803856400,3.8608564453125,-0.328857421875,0.7833404541015625,-0.50750732421875
1782891177813878500,3.87087841796875,-0.3348236083984375,0.78399658203125,-0.5032806396484375
1782891177823900400,3.880900390625,-0.3388519287109375,0.7861328125,-0.5
1782891177833922300,3.89092236328125,-0.3401947021484375,0.7883453369140625,-0.497833251953125
1782891177843944400,3.9009443359375,-0.3392791748046875,0.7886199951171875,-0.4946136474609375
1782891177853966600,3.910966552734375,-0.33294677734375,0.7890472412109375,-0.4919586181640625
1782891177863988500,3.920988525390625,-0.33062744140625,0.791839599609375,-0.49072265625
1782891177874010400,3.93101025390625,-0.3293609619140625,0.7898101806640625,-0.4895782470703125
1782891177884032500,3.941032470703125,-0.3288116455078125,0.7875518798828125,-0.4911346435546875
1782891177894054400,3.951054443359375,-0.3268585205078125,0.788330078125,-0.4947967529296875
1782891177904076300,3.961076171875,-0.3226165771484375,0.7865447998046875,-0.4950714111328125
1782891177914096400,3.971096435546875,-0.317108154296875,0.7860107421875,-0.497528076171875
1782891177924118500,3.981118408203125,-0.314697265625,0.784423828125,-0.499786376953125
1782891177934140400,3.991140380859375,-0.314971923828125,0.7871246337890625,-0.501983642578125
1782891177944162300,4.001162353515625,-0.3169403076171875,0.7883453369140625,-0.5051727294921875
1782891177954184400,4.011184326171875,-0.322418212890625,0.7888336181640625,-0.5092315673828125
1782891177964206300,4.021206298828125,-0.328369140625,0.788818359375,-0.5122833251953125
1782891177974228500,4.031228515625,-0.3343505859375,0.788726806640625,-0.5138702392578125
1782891177984250600,4.041250732421875,-0.33648681640625,0.7859039306640625,-0.5168609619140625
1782891177994272500,4.0512724609375,-0.33489990234375,0.786956787109375,-0.51904296875
1782891178004294400,4.06129443359375,-0.3326568603515625,0.78668212890625,-0.5176239013671875
1782891178014316300,4.07131640625,-0.332122802734375,0.7868499755859375,-0.5158233642578125
1782891178024338400,4.08133837890625,-0.3311004638671875,0.7885284423828125,-0.514556884765625
1782891178034360300,4.0913603515625,-0.32916259765625,0.785858154296875,-0.5106048583984375
1782891178044383500,4.101383544921875,-0.325439453125,0.785675048828125,-0.507476806640625
1782891178054405400,4.1114052734375,-0.3225860595703125,0.7842254638671875,-0.505279541015625
1782891178064427300,4.12142724609375,-0.323150634765625,0.7821044921875,-0.5003814697265625
1782891178074449700,4.13144970703125,-0.325225830078125,0.7808990478515625,-0.495849609375
1782891178084471600,4.141471435546875,-0.3277740478515625,0.780120849609375,-0.4923553466796875
1782891178094493400,4.151493408203125,-0.3335723876953125,0.77886962890625,-0.4898834228515625
1782891178104515600,4.161515625,-0.3361663818359375,0.7803497314453125,-0.492584228515625
1782891178114537500,4.171537353515625,-0.339385986328125,0.7794647216796875,-0.4958343505859375
1782891178124559400,4.181559326171875,-0.33892822265625,0.7805633544921875,-0.4983062744140625
1782891178134581200,4.191581298828125,-0.340606689453125,0.781005859375,-0.5027313232421875
1782891178144603400,4.201603271484375,-0.340118408203125,0.782501220703125,-0.5086669921875
1782891178154625500,4.21162548828125,-0.339324951171875,0.7816314697265625,-0.5135650634765625
1782891178164647400,4.2216474609375,-0.3393707275390625,0.78021240234375,-0.5166015625
1782891178174669600,4.231669677734375,-0.3344879150390625,0.781585693359375,-0.5216522216796875
1782891178184691500,4.24169140625,-0.3294219970703125,0.778839111328125,-0.519683837890625
1782891178194713300,4.25171337890625,-0.3273468017578125,0.7805633544921875,-0.5143890380859375
1782891178204735500,4.261735595703125,-0.3249053955078125,0.784820556640625,-0.5111083984375
1782891178214757400,4.27175732421875,-0.3260040283203125,0.7871246337890625,-0.5049285888671875
1782891178224779300,4.281779296875,-0.325531005859375,0.787445068359375,-0.501617431640625
1782891178234801200,4.29180126953125,-0.3300628662109375,0.78955078125,-0.500030517578125
1782891178244823000,4.301822998046875,-0.33111572265625,0.7874298095703125,-0.5009613037109375
1782891178254845000,4.311844970703125,-0.336883544921875,0.781585693359375,-0.5032501220703125
1782891178264867000,4.3218671875,-0.3375701904296875,0.7773284912109375,-0.5062255859375
1782891178274889000,4.331888916015625,-0.336212158203125,0.7755584716796875,-0.506011962890625
1782891178284911900,4.341911865234375,-0.3325042724609375,0.7735137939453125,-0.5032958984375
1782891178294935000,4.35193505859375,-0.3255157470703125,0.7734832763671875,-0.4996795654296875
1782891178304957000,4.36195703125,-0.3227691650390625,0.7753143310546875,-0.498046875
1782891178314979000,4.37197900390625,-0.325286865234375,0.779632568359375,-0.500152587890625
1782891178325001000,4.3820009765625,-0.327850341796875,0.7843780517578125,-0.5027618408203125
1782891178335022800,4.39202294921875,-0.337127685546875,0.7852630615234375,-0.506988525390625
1782891178345045000,4.402044921875,-0.344757080078125,0.787353515625,-0.50830078125
1782891178355067100,4.412067138671875,-0.350677490234375,0.789886474609375,-0.509002685546875
1782891178365089000,4.422089111328125,-0.3527679443359375,0.7937774658203125,-0.50616455078125
1782891178375111000,4.43211083984375,-0.351318359375,0.79266357421875,-0.5037841796875
1782891178385134000,4.442134033203125,-0.3465728759765625,0.7930908203125,-0.501373291015625
1782891178395156000,4.452156005859375,-0.3400726318359375,0.7881622314453125,-0.5043792724609375
1782891178405178000,4.46217822265625,-0.3343963623046875,0.788482666015625,-0.505523681640625
1782891178415200000,4.472199951171875,-0.3275909423828125,0.7880096435546875,-0.505218505859375
1782891178425222000,4.482221923828125,-0.3244476318359375,0.787506103515625,-0.5066680908203125
1782891178435244000,4.492244140625,-0.321990966796875,0.7863311767578125,-0.5063629150390625
1782891178445266000,4.502265869140625,-0.321685791015625,0.7851715087890625,-0.5029144287109375
1782891178455287800,4.512287841796875,-0.3238677978515625,0.7842864990234375,-0.5027008056640625
1782891178465310200,4.522310302734375,-0.3271942138671875,0.78363037109375,-0.50225830078125
1782891178475332000,4.53233203125,-0.3301239013671875,0.784759521484375,-0.4985504150390625
1782891178485354000,4.54235400390625,-0.331207275390625,0.7844085693359375,-0.496734619140625
1782891178495376000,4.5523759765625,-0.3289947509765625,0.7847900390625,-0.4955596923828125
1782891178505398000,4.56239794921875,-0.3277740478515625,0.7850494384765625,-0.4935760498046875
1782891178515420000,4.572419921875,-0.3316650390625,0.78607177734375,-0.49359130859375
1782891178525441800,4.58244189453125,-0.3365020751953125,0.7864532470703125,-0.4931793212890625
1782891178535464000,4.5924638671875,-0.3400115966796875,0.788848876953125,-0.4925994873046875
1782891178545486000,4.602486083984375,-0.3413238525390625,0.78729248046875,-0.4953460693359375
1782891178555508000,4.612508056640625,-0.340972900390625,0.785491943359375,-0.50054931640625
1782891178565530000,4.622530029296875,-0.335174560546875,0.7849884033203125,-0.5010223388671875
1782891178575552000,4.632552001953125,-0.3297271728515625,0.78515625,-0.5028533935546875
1782891178585574000,4.642573974609375,-0.323211669921875,0.784423828125,-0.505767822265625
1782891178595596000,4.652595947265625,-0.3194732666015625,0.7838287353515625,-0.506103515625
1782891178605619000,4.662618896484375,-0.3164825439453125,0.7860107421875,-0.5048370361328125
1782891178615640800,4.672640869140625,-0.3203887939453125,0.7879180908203125,-0.504119873046875
1782891178625663000,4.6826630859375,-0.3247833251953125,0.7888641357421875,-0.505279541015625
1782891178635684900,4.692684814453125,-0.3300323486328125,0.79071044921875,-0.50738525390625
1782891178645707000,4.70270703125,-0.333984375,0.7874603271484375,-0.51300048828125
1782891178655729200,4.712729248046875,-0.33502197265625,0.78436279296875,-0.5173797607421875
1782891178665751000,4.7227509765625,-0.3333282470703125,0.7837066650390625,-0.51708984375
1782891178675773000,4.73277294921875,-0.3380889892578125,0.784881591796875,-0.5113677978515625
1782891178685795000,4.742795166015625,-0.33984375,0.7849578857421875,-0.50469970703125
1782891178695817000,4.75281689453125,-0.338897705078125,0.7874755859375,-0.501861572265625
1782891178705838800,4.7628388671875,-0.337310791015625,0.78814697265625,-0.4985809326171875
1782891178715861000,4.772861083984375,-0.3346710205078125,0.7857666015625,-0.499908447265625
1782891178725883000,4.7828828125,-0.3274688720703125,0.7833404541015625,-0.500946044921875
1782891178735905000,4.792905029296875,-0.3219451904296875,0.7819976806640625,-0.5023345947265625
1782891178745927200,4.80292724609375,-0.31890869140625,0.7822723388671875,-0.5009307861328125
1782891178755949000,4.812948974609375,-0.3200531005859375,0.783233642578125,-0.4984893798828125
1782891178765971000,4.822970947265625,-0.329437255859375,0.78460693359375,-0.4979400634765625
1782891178775992800,4.832992919921875,-0.335601806640625,0.7866058349609375,-0.49896240234375
1782891178786015000,4.843014892578125,-0.3378753662109375,0.785064697265625,-0.5002593994140625
1782891178796036900,4.853036865234375,-0.33599853515625,0.786376953125,-0.504425048828125
1782891178806059000,4.86305908203125,-0.329498291015625,0.784698486328125,-0.506256103515625
1782891178816081200,4.8730810546875,-0.32550048828125,0.7841033935546875,-0.508087158203125
1782891178826103000,4.88310302734375,-0.321197509765625,0.7836761474609375,-0.5055999755859375
1782891178836126200,4.893126220703125,-0.3211517333984375,0.78375244140625,-0.5043792724609375
1782891178846148000,4.903148193359375,-0.326416015625,0.7859649658203125,-0.5040130615234375
1782891178856170000,4.913169921875,-0.3319549560546875,0.78826904296875,-0.5057373046875
1782891178866192000,4.92319189453125,-0.334503173828125,0.7883453369140625,-0.5069122314453125
1782891178876214000,4.933214111328125,-0.337371826171875,0.7887420654296875,-0.5067596435546875
1782891178886236000,4.94323583984375,-0.3389434814453125,0.7911224365234375,-0.5048675537109375
1782891178896257800,4.9532578125,-0.3421783447265625,0.7904205322265625,-0.5059051513671875
1782891178906280000,4.963280029296875,-0.3391265869140625,0.789581298828125,-0.505523681640625
1782891178916302000,4.973302001953125,-0.33233642578125,0.7895355224609375,-0.5033721923828125
1782891178926324000,4.983323974609375,-0.3323974609375,0.7871551513671875,-0.501953125
1782891178936346000,4.99334619140625,-0.3311920166015625,0.7850494384765625,-0.498443603515625
1782891178946368000,5.003367919921875,-0.3283538818359375,0.7838592529296875,-0.502044677734375
1782891178956390000,5.013389892578125,-0.3271484375,0.781280517578125,-0.5035247802734375
1782891178966412000,5.023412109375,-0.3271026611328125,0.781951904296875,-0.5045013427734375
1782891178976434000,5.033433837890625,-0.32611083984375,0.780181884765625,-0.5063934326171875
1782891178986455800,5.043455810546875,-0.3239288330078125,0.7793426513671875,-0.5048980712890625
1782891178996478200,5.053478271484375,-0.32672119140625,0.7815093994140625,-0.50421142578125
1782891179006500000,5.0635,-0.3268890380859375,0.7862548828125,-0.5038299560546875
1782891179016522000,5.07352197265625,-0.328155517578125,0.784576416015625,-0.50140380859375
1782891179026544000,5.083544189453125,-0.32818603515625,0.78338623046875,-0.4985198974609375
1782891179036566000,5.09356591796875,-0.3321075439453125,0.785552978515625,-0.5003814697265625
1782891179046588000,5.103587890625,-0.335540771484375,0.7849578857421875,-0.4999847412109375
1782891179056609800,5.11360986328125,-0.3350372314453125,0.78759765625,-0.5005645751953125
1782891179066633000,5.123633056640625,-0.3316497802734375,0.7881927490234375,-0.495819091796875
1782891179076654800,5.13365478515625,-0.329803466796875,0.7905426025390625,-0.495086669921875
1782891179086677000,5.143677001953125,-0.33123779296875,0.789215087890625,-0.4967041015625
1782891179096699000,5.153698974609375,-0.3362274169921875,0.7866973876953125,-0.4940338134765625
1782891179106721000,5.163720947265625,-0.3392791748046875,0.7875823974609375,-0.4938507080078125
1782891179116743200,5.1737431640625,-0.339263916015625,0.7920684814453125,-0.49658203125
1782891179126765000,5.18376513671875,-0.33563232421875,0.791839599609375,-0.4989776611328125
1782891179136787000,5.193786865234375,-0.3362884521484375,0.7908935546875,-0.5009307861328125
1782891179146808800,5.203808837890625,-0.3369140625,0.7887725830078125,-0.504058837890625
1782891179156831000,5.2138310546875,-0.3337860107421875,0.7871856689453125,-0.504608154296875
1782891179166852900,5.223852783203125,-0.3285064697265625,0.785736083984375,-0.504425048828125
1782891179176874800,5.233874755859375,-0.320159912109375,0.7837371826171875,-0.50543212890625
1782891179186897200,5.243897216796875,-0.31439208984375,0.7841033935546875,-0.503448486328125
1782891179196919000,5.2539189453125,-0.3106842041015625,0.7848663330078125,-0.50042724609375
1782891179206941000,5.26394091796875,-0.31597900390625,0.7844390869140625,-0.4994659423828125
1782891179216963000,5.273963134765625,-0.3232879638671875,0.7871551513671875,-0.50128173828125
1782891179226985000,5.28398486328125,-0.3357696533203125,0.7859649658203125,-0.4990386962890625
1782891179237006800,5.2940068359375,-0.3457794189453125,0.7841796875,-0.4984893798828125
1782891179247028700,5.30402880859375,-0.3552093505859375,0.787933349609375,-0.4976348876953125
1782891179257051000,5.31405078125,-0.3580322265625,0.790252685546875,-0.4982757568359375
1782891179267073000,5.324072998046875,-0.350250244140625,0.79058837890625,-0.5011138916015625
1782891179277095700,5.334095703125,-0.337371826171875,0.791290283203125,-0.5023193359375
1782891179287118000,5.3441181640625,-0.3251953125,0.792938232421875,-0.5034027099609375
1782891179297140000,5.354139892578125,-0.316131591796875,0.79052734375,-0.5006256103515625
1782891179307161900,5.364161865234375,-0.3118438720703125,0.7921600341796875,-0.4990234375
1782891179317184000,5.37418408203125,-0.3105010986328125,0.7904510498046875,-0.493896484375
1782891179327206000,5.384205810546875,-0.31475830078125,0.7903289794921875,-0.4901885986328125
1782891179337227800,5.394227783203125,-0.32080078125,0.7907562255859375,-0.4913330078125
1782891179347249700,5.404249755859375,-0.3251953125,0.78912353515625,-0.492919921875
1782891179357271800,5.414271728515625,-0.330535888671875,0.7895965576171875,-0.49041748046875
1782891179367294000,5.4242939453125,-0.3331298828125,0.7938079833984375,-0.4928741455078125
1782891179377315800,5.43431591796875,-0.3372955322265625,0.7938079833984375,-0.4922027587890625
1782891179387338000,5.444337890625,-0.338043212890625,0.7942657470703125,-0.4934844970703125
1782891179397359900,5.45435986328125,-0.3338775634765625,0.7953948974609375,-0.4947967529296875
1782891179407381800,5.4643818359375,-0.3305816650390625,0.79461669921875,-0.493682861328125
1782891179417404000,5.47440380859375,-0.3274993896484375,0.791290283203125,-0.49395751953125
1782891179427425800,5.48442578125,-0.3232421875,0.7910308837890625,-0.498565673828125
1782891179437447700,5.49444775390625,-0.320526123046875,0.794586181640625,-0.502655029296875
1782891179447469800,5.5044697265625,-0.3239898681640625,0.7941741943359375,-0.502532958984375
1782891179457492000,5.514491943359375,-0.3292694091796875,0.796173095703125,-0.5001373291015625
1782891179467513900,5.524513916015625,-0.333343505859375,0.8005218505859375,-0.4965057373046875
1782891179477536000,5.534535888671875,-0.3368072509765625,0.801422119140625,-0.4951629638671875
1782891179487558000,5.544557861328125,-0.3341522216796875,0.799346923828125,-0.496673583984375
1782891179497579800,5.554579833984375,-0.32806396484375,0.794891357421875,-0.5001983642578125
1782891179507601700,5.5646015625,-0.3200225830078125,0.7908172607421875,-0.5012054443359375
1782891179517623800,5.574623779296875,-0.3133087158203125,0.7846527099609375,-0.5034332275390625
1782891179527646700,5.584646728515625,-0.306549072265625,0.78338623046875,-0.498626708984375
1782891179537668900,5.5946689453125,-0.3068695068359375,0.7831878662109375,-0.4957122802734375
1782891179547690800,5.604690673828125,-0.3139801025390625,0.7833709716796875,-0.4943389892578125
1782891179557713000,5.614712890625,-0.319244384765625,0.7848663330078125,-0.4935302734375
1782891179567735000,5.624735107421875,-0.32666015625,0.7851104736328125,-0.493927001953125
1782891179577757000,5.6347568359375,-0.333282470703125,0.7857513427734375,-0.493255615234375
1782891179587778800,5.64477880859375,-0.3411407470703125,0.7878570556640625,-0.492156982421875
1782891179597801000,5.654801025390625,-0.345916748046875,0.790618896484375,-0.489654541015625
1782891179607822800,5.66482275390625,-0.3458404541015625,0.7923126220703125,-0.489776611328125
1782891179617844700,5.6748447265625,-0.345947265625,0.7931060791015625,-0.491455078125
1782891179627866600,5.68486669921875,-0.3463287353515625,0.791839599609375,-0.4925994873046875
1782891179637889000,5.694888916015625,-0.3419036865234375,0.7895050048828125,-0.49554443359375
1782891179647911000,5.704910888671875,-0.34088134765625,0.7897491455078125,-0.49676513671875
1782891179657932800,5.714932861328125,-0.3385772705078125,0.7867431640625,-0.4933929443359375
1782891179667955000,5.724954833984375,-0.3367919921875,0.7896270751953125,-0.4918365478515625
1782891179677976800,5.734976806640625,-0.334747314453125,0.79315185546875,-0.4930877685546875
1782891179687998700,5.744998779296875,-0.3327484130859375,0.7913818359375,-0.4924468994140625
1782891179698020900,5.755020751953125,-0.32904052734375,0.7891845703125,-0.4950714111328125
1782891179708042800,5.765042724609375,-0.323883056640625,0.7869110107421875,-0.5011138916015625
1782891179718065000,5.77506494140625,-0.3152923583984375,0.7864990234375,-0.503570556640625
1782891179728087000,5.785087158203125,-0.3087310791015625,0.7852020263671875,-0.5040283203125
1782891179738109000,5.79510888671875,-0.30743408203125,0.7877655029296875,-0.5000457763671875
1782891179748131800,5.8051318359375,-0.3102264404296875,0.7930145263671875,-0.49920654296875
1782891179758154000,5.815154052734375,-0.3214874267578125,0.795196533203125,-0.497711181640625
1782891179768175900,5.82517578125,-0.3329010009765625,0.797821044921875,-0.4976806640625
1782891179778197800,5.83519775390625,-0.341644287109375,0.8002777099609375,-0.4969024658203125
1782891179788220000,5.845219970703125,-0.345123291015625,0.79901123046875,-0.49908447265625
1782891179798241800,5.85524169921875,-0.34088134765625,0.7996673583984375,-0.50152587890625
1782891179808263700,5.865263671875,-0.3346710205078125,0.7985382080078125,-0.498870849609375
1782891179818285800,5.875285888671875,-0.3292083740234375,0.794830322265625,-0.4968109130859375
1782891179828308000,5.885307861328125,-0.323577880859375,0.79443359375,-0.494384765625
1782891179838329900,5.895329833984375,-0.3180999755859375,0.7924957275390625,-0.4918975830078125
1782891179848352000,5.90535205078125,-0.3179779052734375,0.7898406982421875,-0.4919281005859375
1782891179858374000,5.915373779296875,-0.318267822265625,0.7888031005859375,-0.4918212890625
1782891179868395800,5.925395751953125,-0.3190765380859375,0.789794921875,-0.491424560546875
1782891179878418000,5.93541796875,-0.3204498291015625,0.78839111328125,-0.491943359375
1782891179888439800,5.945439697265625,-0.324615478515625,0.7889251708984375,-0.49432373046875
1782891179898461700,5.955461669921875,-0.327606201171875,0.78765869140625,-0.4981536865234375
1782891179908483800,5.96548388671875,-0.3338165283203125,0.7873382568359375,-0.5047607421875
1782891179918506000,5.975506103515625,-0.3431854248046875,0.787261962890625,-0.50408935546875
1782891179928528000,5.98552783203125,-0.3499298095703125,0.7912445068359375,-0.5006866455078125
1782891179938549800,5.9955498046875,-0.35003662109375,0.7912445068359375,-0.501007080078125
1782891179948572000,6.005572021484375,-0.3449249267578125,0.789886474609375,-0.5012664794921875
1782891179958593800,6.01559375,-0.3353424072265625,0.789520263671875,-0.498809814453125
1782891179968617000,6.025616943359375,-0.32501220703125,0.7902374267578125,-0.498809814453125
1782891179978638800,6.035638916015625,-0.321441650390625,0.79034423828125,-0.4946136474609375
1782891179988660700,6.04566064453125,-0.319091796875,0.7901611328125,-0.492218017578125
1782891179998682600,6.0556826171875,-0.3204193115234375,0.7903289794921875,-0.4902191162109375
1782891180008705000,6.065705078125,-0.32427978515625,0.7899169921875,-0.488983154296875
1782891180018727000,6.075726806640625,-0.3255767822265625,0.79150390625,-0.4901123046875
1782891180028748800,6.085748779296875,-0.3277130126953125,0.7917022705078125,-0.4921417236328125
1782891180038771000,6.09577099609375,-0.3279266357421875,0.7944488525390625,-0.49139404296875
1782891180048792800,6.105792724609375,-0.32916259765625,0.793121337890625,-0.4898529052734375
1782891180058814700,6.115814697265625,-0.3321075439453125,0.7919921875,-0.490386962890625
1782891180068836900,6.1258369140625,-0.33074951171875,0.7934417724609375,-0.4948883056640625
1782891180078858800,6.135858642578125,-0.32421875,0.79010009765625,-0.4972076416015625
1782891180088881000,6.145880859375,-0.31964111328125,0.789703369140625,-0.4998779296875
1782891180098903000,6.155903076171875,-0.3189849853515625,0.7918548583984375,-0.4993896484375
1782891180108925000,6.165925048828125,-0.3186798095703125,0.7925567626953125,-0.4980621337890625
1782891180118946800,6.17594677734375,-0.3212890625,0.793212890625,-0.4996795654296875
1782891180128969000,6.185968994140625,-0.32843017578125,0.7906036376953125,-0.499786376953125
1782891180138990800,6.195990966796875,-0.3346099853515625,0.7898406982421875,-0.49969482421875
1782891180149012700,6.2060126953125,-0.33502197265625,0.789825439453125,-0.498565673828125
1782891180159035000,6.216034912109375,-0.3335723876953125,0.7890167236328125,-0.495330810546875
1782891180169056800,6.226056884765625,-0.3289642333984375,0.7891998291015625,-0.4940338134765625
1782891180179079000,6.236078857421875,-0.32916259765625,0.7899017333984375,-0.494598388671875
1782891180189100800,6.246100830078125,-0.327117919921875,0.79052734375,-0.4959716796875
1782891180199124000,6.2561240234375,-0.33013916015625,0.79058837890625,-0.4977874755859375
1782891180209145900,6.266145751953125,-0.3364105224609375,0.791107177734375,-0.4975128173828125
1782891180219168000,6.27616796875,-0.338409423828125,0.790313720703125,-0.4974212646484375
1782891180229190000,6.28618994140625,-0.3358306884765625,0.789581298828125,-0.4954071044921875
1782891180239211800,6.296211669921875,-0.3302001953125,0.787109375,-0.495391845703125
1782891180249234000,6.30623388671875,-0.32647705078125,0.7872772216796875,-0.4949798583984375
1782891180259255800,6.316255859375,-0.323150634765625,0.7894744873046875,-0.4983062744140625
1782891180269277700,6.326277587890625,-0.32550048828125,0.7911529541015625,-0.4957275390625
1782891180279299800,6.3362998046875,-0.326141357421875,0.79052734375,-0.496307373046875
1782891180289322000,6.346322021484375,-0.3256988525390625,0.79022216796875,-0.5005340576171875
1782891180299344000,6.35634375,-0.3251495361328125,0.7864227294921875,-0.5020751953125
1782891180309365800,6.36636572265625,-0.3246002197265625,0.78662109375,-0.504241943359375
1782891180319388000,6.376387939453125,-0.3271636962890625,0.7888031005859375,-0.5039215087890625
1782891180329409800,6.386409912109375,-0.331146240234375,0.790863037109375,-0.503662109375
1782891180339431700,6.396431640625,-0.3341064453125,0.7923736572265625,-0.5024871826171875
1782891180349453800,6.406453857421875,-0.3348846435546875,0.78857421875,-0.5050048828125
1782891180359476000,6.41647607421875,-0.3307952880859375,0.7872161865234375,-0.505889892578125
1782891180369497900,6.426497802734375,-0.3289947509765625,0.7854156494140625,-0.501708984375
1782891180379520000,6.43652001953125,-0.32672119140625,0.785125732421875,-0.50323486328125
1782891180389542000,6.4465419921875,-0.325714111328125,0.78594970703125,-0.503326416015625
1782891180399563800,6.456563720703125,-0.3287353515625,0.7890625,-0.50244140625
1782891180409586000,6.4665859375,-0.3287200927734375,0.7911376953125,-0.503692626953125
1782891180419607800,6.47660791015625,-0.3275604248046875,0.790679931640625,-0.5042572021484375
1782891180429630700,6.486630615234375,-0.32568359375,0.7881317138671875,-0.502716064453125
1782891180439652900,6.49665283203125,-0.319244384765625,0.7879486083984375,-0.4984588623046875
1782891180449674800,6.5066748046875,-0.3145294189453125,0.787109375,-0.4934539794921875
1782891180459697000,6.51669677734375,-0.313690185546875,0.7865142822265625,-0.489349365234375
1782891180469719000,6.526718994140625,-0.31805419921875,0.7855377197265625,-0.490936279296875
1782891180479741000,6.536740966796875,-0.3209075927734375,0.794952392578125,-0.49456787109375
1782891180489762800,6.5467626953125,-0.326934814453125,0.7906494140625,-0.48919677734375
1782891180499785000,6.556784912109375,-0.3354034423828125,0.7897186279296875,-0.489715576171875
1782891180509806800,6.566806884765625,-0.3403167724609375,0.7880859375,-0.49688720703125
1782891180519828700,6.576828857421875,-0.3462066650390625,0.7869873046875,-0.5010528564453125
1782891180529851000,6.586850830078125,-0.34979248046875,0.788604736328125,-0.502288818359375
1782891180539872800,6.596872802734375,-0.3455657958984375,0.7873687744140625,-0.5044708251953125
1782891180549895000,6.60689501953125,-0.340667724609375,0.785919189453125,-0.5029144287109375
1782891180559917000,6.6169169921875,-0.3340911865234375,0.7872772216796875,-0.50360107421875
1782891180569939000,6.62693896484375,-0.3282318115234375,0.78790283203125,-0.5056304931640625
1782891180579960800,6.6369609375,-0.324737548828125,0.7873687744140625,-0.5077056884765625
1782891180589982700,6.646982666015625,-0.3237152099609375,0.7865142822265625,-0.5105438232421875
1782891180600004900,6.6570048828125,-0.3252716064453125,0.7876129150390625,-0.5110321044921875
1782891180610026800,6.66702685546875,-0.3319854736328125,0.787017822265625,-0.5102386474609375
1782891180620048600,6.677048583984375,-0.341278076171875,0.7888946533203125,-0.50604248046875
1782891180630071000,6.687071044921875,-0.34710693359375,0.789093017578125,-0.5021514892578125
1782891180640093000,6.697093017578125,-0.347747802734375,0.7917633056640625,-0.5005340576171875
1782891180650114800,6.70711474609375,-0.3438720703125,0.79010009765625,-0.497955322265625
1782891180660137000,6.717136962890625,-0.3361663818359375,0.7899322509765625,-0.49896240234375
1782891180670160000,6.727159912109375,-0.326690673828125,0.7864227294921875,-0.4977874755859375
1782891180680181800,6.737181640625,-0.318328857421875,0.7847137451171875,-0.4979705810546875
1782891180690204000,6.747203857421875,-0.3094329833984375,0.7851104736328125,-0.494598388671875
1782891180700225800,6.757225830078125,-0.3047943115234375,0.7859039306640625,-0.4932861328125
1782891180710247700,6.76724755859375,-0.305877685546875,0.7864990234375,-0.4941558837890625
1782891180720269800,6.777269775390625,-0.3149566650390625,0.7867584228515625,-0.4967498779296875
1782891180730292000,6.7872919921875,-0.3230743408203125,0.7860565185546875,-0.5002288818359375
1782891180740313900,6.79731396484375,-0.330230712890625,0.787200927734375,-0.5010528564453125
1782891180750336000,6.8073359375,-0.3357391357421875,0.7888031005859375,-0.499786376953125
1782891180760358000,6.81735791015625,-0.335845947265625,0.7913818359375,-0.500091552734375
1782891180770379800,6.8273798828125,-0.335174560546875,0.78900146484375,-0.50213623046875
1782891180780402000,6.83740185546875,-0.3350830078125,0.7904205322265625,-0.5028839111328125
1782891180790423800,6.847423828125,-0.336822509765625,0.788238525390625,-0.5003204345703125
1782891180800445700,6.85744580078125,-0.3402252197265625,0.785064697265625,-0.499725341796875
1782891180810467800,6.8674677734375,-0.342987060546875,0.782501220703125,-0.49798583984375
1782891180820490000,6.877489990234375,-0.34063720703125,0.781494140625,-0.499298095703125
1782891180830511900,6.887511962890625,-0.3349761962890625,0.7831878662109375,-0.4990234375
1782891180840534000,6.897533935546875,-0.3301239013671875,0.78680419921875,-0.4943084716796875
1782891180850556000,6.907555908203125,-0.32830810546875,0.784637451171875,-0.4954681396484375
1782891180860577800,6.917577880859375,-0.3258514404296875,0.785919189453125,-0.4935150146484375
1782891180870599700,6.927599609375,-0.3253631591796875,0.790435791015625,-0.4951171875
1782891180880622800,6.937622802734375,-0.330291748046875,0.789093017578125,-0.5014495849609375
1782891180890644700,6.947644775390625,-0.338958740234375,0.78704833984375,-0.510986328125
1782891180900667000,6.9576669921875,-0.34979248046875,0.7913360595703125,-0.5244293212890625
1782891180910688800,6.967688720703125,-0.3308868408203125,0.8154144287109375,-0.5406036376953125
1782891180920711000,6.9777109375,-0.31317138671875,0.7743682861328125,-0.498291015625
1782891180930733000,6.987733154296875,-0.331146240234375,0.7648162841796875,-0.4981536865234375
1782891180940755000,6.9977548828125,-0.3414154052734375,0.794647216796875,-0.512359619140625
1782891180950776800,7.00777685546875,-0.332061767578125,0.808135986328125,-0.4891357421875
1782891180960798700,7.017798828125,-0.30902099609375,0.809661865234375,-0.47021484375
1782891180970820900,7.02782080078125,-0.3015899658203125,0.79437255859375,-0.47442626953125
1782891180980842800,7.0378427734375,-0.304046630859375,0.78765869140625,-0.478973388671875
1782891180990864600,7.04786474609375,-0.29571533203125,0.804473876953125,-0.50933837890625
1782891181000887000,7.057886962890625,-0.3101043701171875,0.7875823974609375,-0.5154876708984375
1782891181010909000,7.067908935546875,-0.330841064453125,0.77105712890625,-0.5144500732421875
1782891181020930800,7.077930908203125,-0.3475799560546875,0.77459716796875,-0.511688232421875
1782891181030953000,7.087952880859375,-0.342529296875,0.7946929931640625,-0.4917449951171875
1782891181040974800,7.097974853515625,-0.3286285400390625,0.806060791015625,-0.47222900390625
1782891181050996700,7.107996826171875,-0.3164825439453125,0.7985992431640625,-0.473846435546875
1782891181061019000,7.118018798828125,-0.32415771484375,0.7879638671875,-0.465545654296875
1782891181071040800,7.128040771484375,-0.3237457275390625,0.792510986328125,-0.461456298828125
1782891181081063000,7.13806298828125,-0.324676513671875,0.7936859130859375,-0.47137451171875
1782891181091085000,7.1480849609375,-0.32708740234375,0.7935943603515625,-0.4904632568359375
1782891181101107000,7.15810693359375,-0.33111572265625,0.7912750244140625,-0.5114898681640625
1782891181111128800,7.16812890625,-0.3329925537109375,0.7936248779296875,-0.514801025390625
1782891181121152000,7.178152099609375,-0.3390655517578125,0.79913330078125,-0.531402587890625
1782891181131174000,7.188173828125,-0.36865234375,0.7934722900390625,-0.540557861328125
1782891181141195800,7.19819580078125,-0.4110565185546875,0.792755126953125,-0.520172119140625
1782891181151218000,7.208218017578125,-0.441650390625,0.7991485595703125,-0.499359130859375
1782891181161239800,7.21823974609375,-0.45013427734375,0.8028717041015625,-0.4776763916015625
1782891181171261700,7.22826171875,-0.4232635498046875,0.8057708740234375,-0.479461669921875
1782891181181283800,7.238283935546875,-0.3890380859375,0.80548095703125,-0.494232177734375
1782891181191306000,7.248305908203125,-0.367950439453125,0.7946014404296875,-0.505096435546875
1782891181201327900,7.258327880859375,-0.3580322265625,0.782562255859375,-0.502655029296875
1782891181211350000,7.26835009765625,-0.348114013671875,0.7769927978515625,-0.4954986572265625
1782891181221372000,7.278371826171875,-0.3232879638671875,0.7765960693359375,-0.4791412353515625
1782891181231394600,7.28839453125,-0.294036865234375,0.7751007080078125,-0.474090576171875
1782891181241416400,7.29841650390625,-0.27789306640625,0.7711639404296875,-0.4804534912109375
1782891181251438300,7.308438232421875,-0.2791748046875,0.772918701171875,-0.478973388671875
1782891181261460500,7.31846044921875,-0.2843780517578125,0.7741546630859375,-0.4690399169921875
1782891181271482400,7.328482421875,-0.2866668701171875,0.7717132568359375,-0.4665679931640625
1782891181281504500,7.33850439453125,-0.2974090576171875,0.770904541015625,-0.472320556640625
1782891181291526700,7.348526611328125,-0.3121185302734375,0.7723541259765625,-0.4809722900390625
1782891181301548500,7.358548583984375,-0.3317718505859375,0.7762451171875,-0.49029541015625
1782891181311570400,7.3685703125,-0.3640899658203125,0.778289794921875,-0.5041961669921875
1782891181321592600,7.378592529296875,-0.389312744140625,0.783935546875,-0.5089874267578125
1782891181331614500,7.388614501953125,-0.3986968994140625,0.7896881103515625,-0.504364013671875
1782891181341636400,7.39863623046875,-0.394439697265625,0.7872314453125,-0.49676513671875
1782891181351659500,7.408659423828125,-0.3799896240234375,0.781646728515625,-0.4945068359375
1782891181361681400,7.418681396484375,-0.3587493896484375,0.779052734375,-0.49505615234375
1782891181371703300,7.428703369140625,-0.34423828125,0.7765960693359375,-0.497650146484375
1782891181381725400,7.438725341796875,-0.33953857421875,0.7767333984375,-0.4994659423828125
1782891181391747600,7.44874755859375,-0.3403472900390625,0.7761993408203125,-0.4986419677734375
1782891181401769500,7.45876953125,-0.3439788818359375,0.7784423828125,-0.4994354248046875
1782891181411791600,7.46879150390625,-0.34783935546875,0.781524658203125,-0.5054931640625
1782891181421813500,7.4788134765625,-0.35125732421875,0.7829132080078125,-0.5055999755859375
1782891181431835400,7.48883544921875,-0.3466339111328125,0.7825469970703125,-0.50390625
1782891181441857500,7.498857421875,-0.3392181396484375,0.782073974609375,-0.5035247802734375
1782891181451879400,7.50887939453125,-0.3336029052734375,0.784942626953125,-0.5137176513671875
1782891181461901300,7.5189013671875,-0.3389892578125,0.7845611572265625,-0.5171356201171875
1782891181471923700,7.528923828125,-0.353912353515625,0.776611328125,-0.5072021484375
1782891181481945600,7.538945556640625,-0.3580322265625,0.77587890625,-0.4934539794921875
1782891181491967500,7.548967529296875,-0.353363037109375,0.77923583984375,-0.4945220947265625
1782891181501989400,7.5589892578125,-0.3464508056640625,0.777587890625,-0.495086669921875
1782891181512011500,7.569011474609375,-0.3425140380859375,0.77740478515625,-0.49591064453125
1782891181522033400,7.579033447265625,-0.342742919921875,0.7790374755859375,-0.498443603515625
1782891181532055300,7.58905517578125,-0.34918212890625,0.7793426513671875,-0.500030517578125
1782891181542077400,7.599077392578125,-0.353057861328125,0.778717041015625,-0.49420166015625
1782891181552099600,7.609099609375,-0.35174560546875,0.7806243896484375,-0.4884796142578125
1782891181562121500,7.61912158203125,-0.3459625244140625,0.77734375,-0.4927978515625
1782891181572143600,7.6291435546875,-0.336700439453125,0.7730712890625,-0.5014801025390625
1782891181582166500,7.63916650390625,-0.333953857421875,0.772674560546875,-0.5052032470703125
1782891181592188700,7.649188720703125,-0.335693359375,0.7755279541015625,-0.499725341796875
1782891181602210600,7.65921044921875,-0.3343353271484375,0.777679443359375,-0.489471435546875
1782891181612232400,7.669232421875,-0.3353424072265625,0.775390625,-0.486480712890625
1782891181622254300,7.67925439453125,-0.336700439453125,0.7762908935546875,-0.4915008544921875
1782891181632276500,7.6892763671875,-0.3430023193359375,0.7813873291015625,-0.4977569580078125
1782891181642298400,7.69929833984375,-0.356292724609375,0.7838592529296875,-0.5030059814453125
1782891181652320500,7.709320556640625,-0.3722076416015625,0.78619384765625,-0.507965087890625
1782891181662342700,7.7193427734375,-0.3844757080078125,0.7894134521484375,-0.501953125
1782891181672364500,7.729364501953125,-0.3821868896484375,0.789825439453125,-0.5011138916015625
1782891181682386400,7.739386474609375,-0.3648834228515625,0.792877197265625,-0.50225830078125
1782891181692408600,7.74940869140625,-0.3486328125,0.7932586669921875,-0.5024261474609375
1782891181702430500,7.759430419921875,-0.338165283203125,0.7858734130859375,-0.501708984375
1782891181712452400,7.769452392578125,-0.3325042724609375,0.7823333740234375,-0.497039794921875
1782891181722474500,7.779474609375,-0.3283538818359375,0.7852630615234375,-0.4930877685546875
1782891181732496400,7.789496337890625,-0.322235107421875,0.7862091064453125,-0.49468994140625
1782891181742518500,7.7995185546875,-0.3187713623046875,0.7852935791015625,-0.4926605224609375
1782891181752540700,7.809540771484375,-0.3177947998046875,0.782135009765625,-0.494232177734375
1782891181762562600,7.8195625,-0.32220458984375,0.7785797119140625,-0.498992919921875
1782891181772584400,7.82958447265625,-0.328887939453125,0.784912109375,-0.5001220703125
1782891181782606300,7.8396064453125,-0.33502197265625,0.7884521484375,-0.4965057373046875
1782891181792628500,7.84962841796875,-0.34027099609375,0.787872314453125,-0.4956207275390625
1782891181802650400,7.859650390625,-0.3466949462890625,0.790924072265625,-0.5002288818359375
1782891181812673500,7.869673583984375,-0.349029541015625,0.792694091796875,-0.5019989013671875
1782891181822695400,7.8796953125,-0.350677490234375,0.788726806640625,-0.505950927734375
1782891181832717300,7.88971728515625,-0.351409912109375,0.784912109375,-0.504852294921875
1782891181842739500,7.899739501953125,-0.3456573486328125,0.7878265380859375,-0.501220703125
1782891181852761600,7.90976171875,-0.339752197265625,0.7843170166015625,-0.498291015625
1782891181862783500,7.919783447265625,-0.336273193359375,0.78424072265625,-0.4926910400390625
1782891181872805600,7.9298056640625,-0.3385772705078125,0.785369873046875,-0.49395751953125
1782891181882827500,7.93982763671875,-0.3416900634765625,0.7845611572265625,-0.49755859375
1782891181892849400,7.949849365234375,-0.3431243896484375,0.7835235595703125,-0.4973602294921875
1782891181902871300,7.959871337890625,-0.341644287109375,0.7830810546875,-0.495391845703125
1782891181912891400,7.969891357421875,-0.3395538330078125,0.7850494384765625,-0.4967803955078125
1782891181922914600,7.97991455078125,-0.3400726318359375,0.785125732421875,-0.502655029296875
1782891181932936400,7.9899365234375,-0.34326171875,0.7888641357421875,-0.5068206787109375
1782891181942958600,7.99995849609375,-0.3524169921875,0.7883453369140625,-0.50457763671875
1782891181952980500,8.00998046875,-0.35797119140625,0.7869415283203125,-0.5017242431640625
1782891181963002400,8.02000244140625,-0.356781005859375,0.7847747802734375,-0.4965667724609375
1782891181973024300,8.030024169921875,-0.346893310546875,0.7837982177734375,-0.4969024658203125
1782891181983046700,8.040046630859376,-0.3350677490234375,0.783111572265625,-0.502227783203125
1782891181993068500,8.050068603515625,-0.3260498046875,0.7787017822265625,-0.503387451171875
1782891182003090400,8.06009033203125,-0.3193206787109375,0.7803192138671875,-0.4989166259765625
1782891182013112600,8.070112548828124,-0.32012939453125,0.7799072265625,-0.5013275146484375
1782891182023134500,8.080134521484375,-0.324951171875,0.7804412841796875,-0.5050506591796875
1782891182033156400,8.09015625,-0.3288421630859375,0.782135009765625,-0.5008697509765625
1782891182043178500,8.100178466796875,-0.33319091796875,0.7830963134765625,-0.4964141845703125
1782891182053200400,8.110200439453125,-0.3396759033203125,0.7805938720703125,-0.4937744140625
1782891182063222500,8.120222412109374,-0.3449249267578125,0.78314208984375,-0.4946441650390625
1782891182073244700,8.13024462890625,-0.35107421875,0.7831878662109375,-0.5003662109375
1782891182083266600,8.1402666015625,-0.3574371337890625,0.7841796875,-0.50152587890625
1782891182093288400,8.150288330078125,-0.3643035888671875,0.7828521728515625,-0.501739501953125
1782891182103310600,8.160310546875,-0.36614990234375,0.7846527099609375,-0.50244140625
1782891182113332500,8.17033251953125,-0.36602783203125,0.7861480712890625,-0.500396728515625
1782891182123354400,8.180354248046875,-0.360076904296875,0.785552978515625,-0.4985504150390625
1782891182133376500,8.19037646484375,-0.349517822265625,0.7832794189453125,-0.4944610595703125
1782891182143398400,8.2003984375,-0.3427886962890625,0.7802581787109375,-0.4991912841796875
1782891182153420500,8.210420654296875,-0.338958740234375,0.781097412109375,-0.500152587890625
1782891182163443500,8.220443359375,-0.3332672119140625,0.779296875,-0.496002197265625
1782891182173465600,8.230465576171875,-0.3225860595703125,0.7783966064453125,-0.49359130859375
1782891182183487500,8.240487548828124,-0.31622314453125,0.779266357421875,-0.4901580810546875
1782891182193509600,8.250509521484375,-0.316650390625,0.7809600830078125,-0.49267578125
1782891182203531500,8.260531494140626,-0.3225860595703125,0.78094482421875,-0.4934844970703125
1782891182213553400,8.270553466796875,-0.3334808349609375,0.78155517578125,-0.491546630859375
1782891182223575600,8.280575439453125,-0.3408966064453125,0.7820281982421875,-0.493621826171875
1782891182233597000,8.290596923828126,-0.3481903076171875,0.7886810302734375,-0.49810791015625
1782891182243618800,8.300618896484375,-0.3599700927734375,0.7908782958984375,-0.50042724609375
1782891182253640700,8.310640625,-0.3636322021484375,0.792327880859375,-0.5014801025390625
1782891182263662800,8.320662841796874,-0.36663818359375,0.7908172607421875,-0.5050506591796875
1782891182273684700,8.330684814453125,-0.3681182861328125,0.790771484375,-0.508453369140625
1782891182283706600,8.34070654296875,-0.3640289306640625,0.7888946533203125,-0.506134033203125
1782891182293728800,8.350728759765625,-0.3567047119140625,0.785186767578125,-0.501007080078125
1782891182303750700,8.360750732421875,-0.3421478271484375,0.7852325439453125,-0.496978759765625
1782891182313772800,8.370772705078124,-0.3284912109375,0.7851715087890625,-0.497283935546875
1782891182323795000,8.380794921875,-0.320770263671875,0.7846527099609375,-0.496856689453125
1782891182333816800,8.39081689453125,-0.31866455078125,0.7822265625,-0.49493408203125
1782891182343838700,8.400838623046875,-0.320465087890625,0.779571533203125,-0.497955322265625
1782891182353860600,8.410860595703125,-0.3253173828125,0.7822113037109375,-0.499786376953125
1782891182363882800,8.4208828125,-0.33465576171875,0.78350830078125,-0.5037994384765625
1782891182373904600,8.430904541015625,-0.342559814453125,0.783660888671875,-0.50537109375
1782891182383926500,8.440926513671876,-0.3494415283203125,0.784942626953125,-0.5044403076171875
1782891182393948700,8.45094873046875,-0.3488616943359375,0.786590576171875,-0.4989471435546875
1782891182403971600,8.4609716796875,-0.346588134765625,0.786163330078125,-0.4990997314453125
1782891182413993700,8.47099365234375,-0.342254638671875,0.7830352783203125,-0.4980926513671875
1782891182424016000,8.481015869140625,-0.337005615234375,0.7802581787109375,-0.498260498046875
1782891182434037800,8.491037841796874,-0.3347015380859375,0.7805023193359375,-0.493865966796875
1782891182444060000,8.501059814453125,-0.3356170654296875,0.7811126708984375,-0.494903564453125
1782891182454081800,8.511081787109376,-0.3406982421875,0.7813568115234375,-0.4946746826171875
1782891182464103700,8.521103759765625,-0.3477935791015625,0.7834930419921875,-0.4952850341796875
1782891182474125600,8.53112548828125,-0.349945068359375,0.7837982177734375,-0.49822998046875
1782891182484147700,8.541147705078124,-0.3504791259765625,0.7841949462890625,-0.494598388671875
1782891182494169600,8.551169677734375,-0.3493804931640625,0.788604736328125,-0.4915618896484375
1782891182504191700,8.561191650390626,-0.351318359375,0.794036865234375,-0.4868011474609375
1782891182514214000,8.5712138671875,-0.3514556884765625,0.791534423828125,-0.48712158203125
1782891182524235800,8.58123583984375,-0.3490142822265625,0.78802490234375,-0.4890289306640625
1782891182534257700,8.591257568359374,-0.3448638916015625,0.7866363525390625,-0.4951324462890625
1782891182544279800,8.60127978515625,-0.344146728515625,0.7874603271484375,-0.4981842041015625
1782891182554301700,8.6113017578125,-0.345947265625,0.7879638671875,-0.4949493408203125
1782891182564323600,8.621323486328125,-0.3387298583984375,0.7893524169921875,-0.494140625
1782891182574345700,8.631345703125,-0.332977294921875,0.7874603271484375,-0.499755859375
1782891182584367900,8.641367919921874,-0.3336944580078125,0.785308837890625,-0.500885009765625
1782891182594389800,8.6513896484375,-0.3365936279296875,0.781707763671875,-0.5002899169921875
1782891182604412000,8.661411865234374,-0.337188720703125,0.7824859619140625,-0.496002197265625
1782891182614433800,8.671433837890625,-0.3358306884765625,0.7792816162109375,-0.4921112060546875
1782891182624456700,8.681456787109376,-0.33673095703125,0.779510498046875,-0.4894866943359375
1782891182634478800,8.691478759765625,-0.338134765625,0.779205322265625,-0.490570068359375
1782891182644500700,8.701500732421875,-0.341888427734375,0.777313232421875,-0.492645263671875
1782891182654522600,8.711522705078124,-0.34942626953125,0.7789306640625,-0.4913482666015625
1782891182664544800,8.721544677734375,-0.357940673828125,0.7800140380859375,-0.496246337890625
1782891182674566700,8.731566650390626,-0.367340087890625,0.782684326171875,-0.5006103515625
1782891182684588500,8.741588623046875,-0.3695068359375,0.7864227294921875,-0.497528076171875
1782891182694611000,8.75161083984375,-0.363555908203125,0.78741455078125,-0.4907684326171875
1782891182704632800,8.7616328125,-0.3538360595703125,0.7871551513671875,-0.4862213134765625
1782891182714654700,8.77165478515625,-0.3388214111328125,0.7872314453125,-0.486663818359375
1782891182724676900,8.7816767578125,-0.33135986328125,0.7857666015625,-0.4917144775390625
1782891182734698800,8.79169873046875,-0.326751708984375,0.785247802734375,-0.496063232421875
1782891182744720600,8.801720703125,-0.3284759521484375,0.7854766845703125,-0.4990692138671875
1782891182754742500,8.811742431640624,-0.3323516845703125,0.78546142578125,-0.4976348876953125
1782891182764764700,8.8217646484375,-0.34320068359375,0.7842559814453125,-0.49761962890625
1782891182774786800,8.831786865234376,-0.3494415283203125,0.7865142822265625,-0.499542236328125
1782891182784808700,8.84180859375,-0.3531951904296875,0.7876434326171875,-0.5000762939453125
1782891182794830800,8.851830810546875,-0.3503875732421875,0.788055419921875,-0.4959869384765625
1782891182804852700,8.861852783203124,-0.34527587890625,0.7899322509765625,-0.4952239990234375
1782891182814874600,8.87187451171875,-0.337677001953125,0.7892913818359375,-0.4937896728515625
1782891182824896800,8.881896728515626,-0.3334503173828125,0.78912353515625,-0.491485595703125
1782891182834918700,8.891918701171875,-0.3312835693359375,0.78997802734375,-0.4900665283203125
1782891182844941600,8.901941650390626,-0.331146240234375,0.7909393310546875,-0.4907073974609375
1782891182854963700,8.911963623046875,-0.3337554931640625,0.79083251953125,-0.4884796142578125
1782891182864985600,8.921985595703125,-0.3404388427734375,0.7917022705078125,-0.4881134033203125
1782891182875007700,8.9320078125,-0.34930419921875,0.790618896484375,-0.4892578125
1782891182885030000,8.94202978515625,-0.3628082275390625,0.789642333984375,-0.494903564453125
1782891182895051800,8.9520517578125,-0.3705596923828125,0.7938232421875,-0.497344970703125
1782891182905073700,8.96207373046875,-0.371307373046875,0.7911834716796875,-0.499176025390625
1782891182915095800,8.972095703125,-0.362091064453125,0.7871856689453125,-0.5004730224609375
1782891182925117700,8.98211767578125,-0.35284423828125,0.7834320068359375,-0.501220703125
1782891182935139600,8.9921396484375,-0.3444976806640625,0.7841033935546875,-0.500335693359375
1782891182945161700,9.00216162109375,-0.3407745361328125,0.784210205078125,-0.5006561279296875
1782891182955183900,9.012183837890625,-0.3363189697265625,0.7813873291015625,-0.4993133544921875
1782891182965205800,9.022205810546875,-0.3338470458984375,0.7806854248046875,-0.5001373291015625
1782891182975228000,9.032227783203124,-0.335113525390625,0.7822723388671875,-0.49462890625
1782891182985249800,9.042249755859375,-0.337005615234375,0.7842559814453125,-0.4895477294921875
1782891182995271700,9.052271728515626,-0.33734130859375,0.7856903076171875,-0.4851531982421875
1782891183005293800,9.0622939453125,-0.3430938720703125,0.78839111328125,-0.4884033203125
1782891183015315700,9.072315673828125,-0.3517303466796875,0.7872314453125,-0.4879302978515625
1782891183025337600,9.082337646484374,-0.35693359375,0.7852325439453125,-0.490509033203125
1782891183035359700,9.09235986328125,-0.35882568359375,0.782470703125,-0.4954071044921875
1782891183045382000,9.1023818359375,-0.3542633056640625,0.7828369140625,-0.496795654296875
1782891183055403800,9.11240380859375,-0.3478851318359375,0.7848663330078125,-0.50030517578125
1782891183065425700,9.12242578125,-0.341217041015625,0.7828521728515625,-0.5047454833984375
1782891183075447800,9.13244775390625,-0.3383331298828125,0.7788543701171875,-0.5031890869140625
1782891183085470700,9.142470703125,-0.337921142578125,0.7779388427734375,-0.4960784912109375
1782891183095492900,9.152492919921874,-0.3340606689453125,0.78070068359375,-0.492706298828125
1782891183105514800,9.1625146484375,-0.3330841064453125,0.782989501953125,-0.4905548095703125
1782891183115536600,9.17253662109375,-0.33673095703125,0.784332275390625,-0.49578857421875
1782891183125558500,9.18255859375,-0.3460540771484375,0.784423828125,-0.5060272216796875
1782891183135580700,9.19258056640625,-0.358734130859375,0.7859649658203125,-0.5076751708984375
1782891183145602800,9.202602783203124,-0.364837646484375,0.7840118408203125,-0.5027618408203125
1782891183155624700,9.212624755859375,-0.3587188720703125,0.7848052978515625,-0.4998931884765625
1782891183165646800,9.222646728515626,-0.3467559814453125,0.7884674072265625,-0.4990234375
1782891183175668700,9.232668701171875,-0.339508056640625,0.789154052734375,-0.49774169921875
1782891183185690600,9.242690673828125,-0.331024169921875,0.785430908203125,-0.4968414306640625
1782891183195712800,9.252712646484374,-0.3261566162109375,0.7815704345703125,-0.4964752197265625
1782891183205734700,9.262734619140625,-0.3268890380859375,0.78143310546875,-0.4939727783203125
1782891183215756500,9.272756591796876,-0.3287353515625,0.7837371826171875,-0.493316650390625
1782891183225779000,9.282779052734375,-0.3378448486328125,0.783447265625,-0.49560546875
1782891183235801600,9.292801513671876,-0.35357666015625,0.7820587158203125,-0.494842529296875
1782891183245823700,9.30282373046875,-0.3594207763671875,0.784637451171875,-0.49212646484375
1782891183255845600,9.312845703125,-0.35113525390625,0.786163330078125,-0.4918060302734375
1782891183265867800,9.32286767578125,-0.3445281982421875,0.7828521728515625,-0.49334716796875
1782891183275889700,9.3328896484375,-0.33746337890625,0.782257080078125,-0.4932098388671875
1782891183285911600,9.34291162109375,-0.3326416015625,0.7794189453125,-0.4918212890625
1782891183295933700,9.35293359375,-0.333892822265625,0.778076171875,-0.4902191162109375
1782891183305955600,9.36295556640625,-0.3390960693359375,0.776885986328125,-0.4911346435546875
1782891183315978500,9.372978515625,-0.3448028564453125,0.777374267578125,-0.4913177490234375
1782891183326000600,9.383000732421875,-0.3503570556640625,0.7782135009765625,-0.4940948486328125
1782891183336022500,9.3930224609375,-0.3535308837890625,0.78228759765625,-0.4909515380859375
1782891183346044400,9.40304443359375,-0.35516357421875,0.78289794921875,-0.490966796875
1782891183356066800,9.41306689453125,-0.3587493896484375,0.786102294921875,-0.498291015625
1782891183366088700,9.423088623046874,-0.3572998046875,0.78826904296875,-0.505645751953125
1782891183376110600,9.433110595703125,-0.35333251953125,0.7906036376953125,-0.5064544677734375
1782891183386132700,9.4431328125,-0.349853515625,0.7915802001953125,-0.5064544677734375
1782891183396154600,9.453154541015625,-0.3520050048828125,0.7898101806640625,-0.50885009765625
1782891183406176500,9.463176513671876,-0.352783203125,0.788543701171875,-0.5112152099609375
1782891183416198400,9.473198486328124,-0.3525543212890625,0.7876129150390625,-0.5108642578125
1782891183426220500,9.483220458984375,-0.3512725830078125,0.79119873046875,-0.4974517822265625
1782891183436242700,9.49324267578125,-0.3443756103515625,0.7898101806640625,-0.4937591552734375
1782891183446264600,9.5032646484375,-0.332061767578125,0.78753662109375,-0.4891510009765625
1782891183456286700,9.51328662109375,-0.325592041015625,0.7825164794921875,-0.4888153076171875
1782891183466308600,9.52330859375,-0.32379150390625,0.7779083251953125,-0.4919281005859375
1782891183476330500,9.53333056640625,-0.325775146484375,0.7777862548828125,-0.4976043701171875
1782891183486352600,9.5433525390625,-0.33367919921875,0.7784576416015625,-0.502349853515625
1782891183496374500,9.55337451171875,-0.3394012451171875,0.781219482421875,-0.5009918212890625
1782891183506396400,9.563396484375,-0.34075927734375,0.7821044921875,-0.4991607666015625
1782891183516418800,9.573418701171875,-0.3415679931640625,0.78125,-0.496337890625
1782891183526440700,9.583440673828125,-0.341888427734375,0.78131103515625,-0.50018310546875
1782891183536462600,9.593462646484374,-0.3451385498046875,0.7816619873046875,-0.50628662109375
1782891183546485800,9.60348583984375,-0.35064697265625,0.7813262939453125,-0.50775146484375
1782891183556507600,9.613507568359376,-0.3560028076171875,0.7846527099609375,-0.5042266845703125
1782891183566529500,9.623529541015625,-0.356353759765625,0.7860260009765625,-0.4988555908203125
1782891183576551700,9.6335517578125,-0.3534088134765625,0.785247802734375,-0.4958648681640625
1782891183586573600,9.643573486328124,-0.3451690673828125,0.7855377197265625,-0.49090576171875
1782891183596595500,9.653595458984375,-0.3388824462890625,0.78643798828125,-0.4922027587890625
1782891183606617600,9.66361767578125,-0.3401641845703125,0.7779083251953125,-0.4977569580078125
1782891183616639500,9.673639404296875,-0.33984375,0.7794647216796875,-0.499481201171875
1782891183626661600,9.68366162109375,-0.3364410400390625,0.7816162109375,-0.4957275390625
1782891183636683800,9.693683837890624,-0.332733154296875,0.782257080078125,-0.4921875
1782891183646705700,9.70370556640625,-0.331756591796875,0.78375244140625,-0.4932861328125
1782891183656727600,9.7137275390625,-0.3371734619140625,0.7851104736328125,-0.4965057373046875
1782891183666749700,9.723749755859375,-0.3463134765625,0.7847900390625,-0.50115966796875
1782891183676771600,9.733771484375,-0.354217529296875,0.7806243896484375,-0.503692626953125
1782891183686793500,9.74379345703125,-0.3560943603515625,0.7792816162109375,-0.506622314453125
1782891183696815600,9.753815673828125,-0.356964111328125,0.77996826171875,-0.5065765380859375
1782891183706837800,9.763837646484374,-0.356414794921875,0.7785186767578125,-0.5041656494140625
1782891183716859600,9.773859619140625,-0.349822998046875,0.777557373046875,-0.50250244140625
1782891183726881500,9.783881591796876,-0.3399200439453125,0.77691650390625,-0.4976348876953125
1782891183736903700,9.793903564453124,-0.32867431640625,0.7802581787109375,-0.495819091796875
1782891183746925600,9.803925537109375,-0.3158721923828125,0.784149169921875,-0.4933624267578125
1782891183756947500,9.813947509765624,-0.3113250732421875,0.7861175537109375,-0.4943695068359375
1782891183766969600,9.823969482421875,-0.3191680908203125,0.787109375,-0.4967498779296875
1782891183776992500,9.833992431640626,-0.327789306640625,0.789703369140625,-0.490966796875
1782891183787014700,9.8440146484375,-0.336700439453125,0.793975830078125,-0.4885406494140625
1782891183797036500,9.85403662109375,-0.348480224609375,0.80224609375,-0.484588623046875
1782891183807058700,9.86405859375,-0.358673095703125,0.808502197265625,-0.475555419921875
1782891183817080600,9.87408056640625,-0.36517333984375,0.8077392578125,-0.48004150390625
1782891183827102700,9.884102783203126,-0.3740234375,0.804718017578125,-0.4926910400390625
1782891183837124600,9.89412451171875,-0.3737945556640625,0.7939300537109375,-0.50653076171875
1782891183847146500,9.904146484375,-0.3642120361328125,0.7902069091796875,-0.5101470947265625
1782891183857168600,9.914168701171874,-0.3509063720703125,0.776336669921875,-0.5080413818359375
1782891183867190500,9.9241904296875,-0.3311767578125,0.765716552734375,-0.5118408203125
1782891183877212400,9.93421240234375,-0.3187103271484375,0.76263427734375,-0.515106201171875
1782891183887234600,9.944234619140625,-0.3142547607421875,0.758148193359375,-0.51385498046875
1782891183897256700,9.954256591796875,-0.3167572021484375,0.76129150390625,-0.507110595703125
1782891183907278600,9.964278564453124,-0.324737548828125,0.767181396484375,-0.4969024658203125
1782891183917300700,9.97430078125,-0.33758544921875,0.7715911865234375,-0.491058349609375
1782891183927322600,9.984322509765626,-0.3479766845703125,0.778564453125,-0.4915924072265625
1782891183937344500,9.994344482421875,-0.3546295166015625,0.7834320068359375,-0.494720458984375
1782891183947366700,10.00436669921875,-0.369720458984375,0.7861175537109375,-0.49224853515625
1782891183957388500,10.014388427734374,-0.38140869140625,0.7862396240234375,-0.4973907470703125
1782891183967410700,10.02441064453125,-0.3820343017578125,0.7852783203125,-0.50164794921875
1782891183977432600,10.0344326171875,-0.372222900390625,0.7867889404296875,-0.49993896484375
1782891183987454700,10.044454833984375,-0.358917236328125,0.7879791259765625,-0.49554443359375
1782891183997476600,10.0544765625,-0.3437347412109375,0.785675048828125,-0.4934539794921875
1782891184007499800,10.064499755859375,-0.33355712890625,0.78662109375,-0.4903411865234375
1782891184017521700,10.074521728515625,-0.3302764892578125,0.786102294921875,-0.4879608154296875
1782891184027543600,10.08454345703125,-0.330535888671875,0.784698486328125,-0.4874114990234375
1782891184037565700,10.094565673828125,-0.331573486328125,0.7872314453125,-0.4909515380859375
1782891184047587600,10.104587646484376,-0.3360595703125,0.7877655029296875,-0.4987030029296875
1782891184057609500,10.114609375,-0.3343658447265625,0.787994384765625,-0.503204345703125
1782891184067631600,10.124631591796875,-0.3350982666015625,0.789581298828125,-0.5014801025390625
1782891184077653800,10.13465380859375,-0.34161376953125,0.78729248046875,-0.4986572265625
1782891184087675600,10.144675537109375,-0.3459320068359375,0.788818359375,-0.495330810546875
1782891184097697500,10.154697509765626,-0.34490966796875,0.790557861328125,-0.49468994140625
1782891184107719700,10.1647197265625,-0.3410186767578125,0.7928009033203125,-0.4948883056640625
1782891184117741600,10.174741455078125,-0.3412322998046875,0.789764404296875,-0.494415283203125
1782891184127763500,10.184763427734374,-0.3412933349609375,0.7890167236328125,-0.4930877685546875
1782891184137785600,10.19478564453125,-0.3393096923828125,0.7911224365234375,-0.4939727783203125
1782891184147807500,10.204807373046876,-0.3398590087890625,0.7888641357421875,-0.4911956787109375
1782891184157829600,10.21482958984375,-0.339080810546875,0.785003662109375,-0.4908599853515625
1782891184167851800,10.224851806640626,-0.3408966064453125,0.785491943359375,-0.494415283203125
1782891184177873700,10.234873779296874,-0.339691162109375,0.7855224609375,-0.495635986328125
1782891184187895600,10.2448955078125,-0.3355865478515625,0.783355712890625,-0.4907989501953125
1782891184197917700,10.254917724609374,-0.3334197998046875,0.781707763671875,-0.4892578125
1782891184207939600,10.264939697265625,-0.3368682861328125,0.7802581787109375,-0.49188232421875
1782891184217961500,10.27496142578125,-0.34539794921875,0.77874755859375,-0.4948883056640625
1782891184227984600,10.284984619140625,-0.3583526611328125,0.7783355712890625,-0.503173828125
1782891184238005800,10.295005859375,-0.36810302734375,0.780517578125,-0.5024871826171875
1782891184248028000,10.30502783203125,-0.365997314453125,0.7847900390625,-0.4967498779296875
1782891184258049800,10.3150498046875,-0.3625335693359375,0.7881927490234375,-0.4919586181640625
1782891184268072000,10.325072021484376,-0.3590240478515625,0.7907257080078125,-0.49078369140625
1782891184278093800,10.33509375,-0.350799560546875,0.788238525390625,-0.4918060302734375
1782891184288115700,10.34511572265625,-0.3421630859375,0.7896575927734375,-0.493011474609375
1782891184298137900,10.355137939453124,-0.3332366943359375,0.792236328125,-0.497528076171875
1782891184308159700,10.36515966796875,-0.3264923095703125,0.791168212890625,-0.495819091796875
1782891184318181600,10.375181640625,-0.3196563720703125,0.7911529541015625,-0.4910125732421875
1782891184328204000,10.3852041015625,-0.3150482177734375,0.7914581298828125,-0.4937591552734375
1782891184338226000,10.395225830078125,-0.3202667236328125,0.788238525390625,-0.5010986328125
1782891184348247800,10.405247802734374,-0.3263092041015625,0.7879638671875,-0.5041046142578125
1782891184358270000,10.41527001953125,-0.3285064697265625,0.7910003662109375,-0.5042266845703125
1782891184368291800,10.425291748046876,-0.3297119140625,0.7909393310546875,-0.499755859375
1782891184378313700,10.435313720703125,-0.3374786376953125,0.7891387939453125,-0.49359130859375
1782891184388335600,10.445335693359375,-0.3437652587890625,0.788848876953125,-0.4945068359375
1782891184398357800,10.455357666015624,-0.3458404541015625,0.7886962890625,-0.49444580078125
1782891184408380000,10.4653798828125,-0.342254638671875,0.7871246337890625,-0.4940948486328125
1782891184418401800,10.47540185546875,-0.3398590087890625,0.785186767578125,-0.4956512451171875
1782891184428424000,10.485423828125,-0.334564208984375,0.786376953125,-0.4944305419921875
1782891184438445800,10.49544580078125,-0.338958740234375,0.7866058349609375,-0.49560546875
1782891184448467700,10.5054677734375,-0.348052978515625,0.7823333740234375,-0.493804931640625
1782891184458489900,10.51548974609375,-0.3515167236328125,0.782257080078125,-0.492584228515625
1782891184468512800,10.5255126953125,-0.347900390625,0.78472900390625,-0.49188232421875
1782891184478534700,10.53553466796875,-0.3449249267578125,0.7850341796875,-0.4900970458984375
1782891184488556800,10.545556884765626,-0.3427734375,0.7882080078125,-0.48828125
1782891184498578700,10.55557861328125,-0.3386383056640625,0.7868804931640625,-0.4840545654296875
1782891184508600800,10.565600830078125,-0.3421630859375,0.7845458984375,-0.4847869873046875
1782891184518623000,10.575623046875,-0.3450164794921875,0.7850189208984375,-0.4918365478515625
1782891184528644900,10.585644775390625,-0.3455047607421875,0.785186767578125,-0.4960479736328125
1782891184538666800,10.595666748046876,-0.345855712890625,0.7846527099609375,-0.500701904296875
1782891184548689000,10.60568896484375,-0.3480377197265625,0.7860870361328125,-0.5038299560546875
1782891184558710800,10.615710693359375,-0.3496856689453125,0.78729248046875,-0.5000457763671875
1782891184568732700,10.625732666015624,-0.3477935791015625,0.78753662109375,-0.49237060546875
1782891184578754800,10.6357548828125,-0.3398590087890625,0.7873992919921875,-0.4918975830078125
1782891184588776700,10.645776611328126,-0.3327484130859375,0.7830047607421875,-0.49053955078125
1782891184598798800,10.655798828125,-0.326202392578125,0.7813262939453125,-0.4941558837890625
1782891184608821000,10.665821044921875,-0.3221282958984375,0.7813873291015625,-0.4952850341796875
1782891184618843000,10.6758427734375,-0.3291778564453125,0.782440185546875,-0.4978485107421875
1782891184628864800,10.68586474609375,-0.33758544921875,0.785675048828125,-0.4959869384765625
1782891184638887000,10.695886962890626,-0.3465728759765625,0.788543701171875,-0.4976806640625
1782891184648908800,10.70590869140625,-0.354827880859375,0.7873077392578125,-0.497802734375
1782891184658930700,10.7159306640625,-0.3560028076171875,0.792724609375,-0.4940948486328125
1782891184668952600,10.72595263671875,-0.352874755859375,0.792999267578125,-0.495849609375
1782891184678975000,10.73597509765625,-0.3473663330078125,0.7880096435546875,-0.49755859375
1782891184688996900,10.745996826171876,-0.3462066650390625,0.787811279296875,-0.497955322265625
1782891184699018800,10.756018798828125,-0.3402862548828125,0.78741455078125,-0.498809814453125
1782891184709042000,10.7660419921875,-0.3383636474609375,0.785888671875,-0.4984130859375
1782891184719063800,10.776063720703124,-0.340576171875,0.787200927734375,-0.5002288818359375
1782891184729086000,10.7860859375,-0.341339111328125,0.789764404296875,-0.49676513671875
1782891184739107800,10.79610791015625,-0.3426055908203125,0.788604736328125,-0.4914398193359375
1782891184749129700,10.806129638671875,-0.3403167724609375,0.7897491455078125,-0.491119384765625
1782891184759151600,10.816151611328126,-0.338409423828125,0.78759765625,-0.49102783203125
1782891184769173800,10.826173828125,-0.3371734619140625,0.7836761474609375,-0.494354248046875
1782891184779196000,10.83619580078125,-0.3352508544921875,0.779327392578125,-0.4958953857421875
1782891184789217800,10.8462177734375,-0.33441162109375,0.7784423828125,-0.499237060546875
1782891184799240000,10.856239990234375,-0.335235595703125,0.779632568359375,-0.50146484375
1782891184809261800,10.86626171875,-0.33917236328125,0.7825927734375,-0.5019073486328125
1782891184819283700,10.87628369140625,-0.342559814453125,0.7835693359375,-0.5013275146484375
1782891184829305900,10.886305908203125,-0.339935302734375,0.784271240234375,-0.501617431640625
1782891184839327700,10.89632763671875,-0.3385009765625,0.785919189453125,-0.5019683837890625
1782891184849349600,10.906349609375,-0.339813232421875,0.783660888671875,-0.49615478515625
1782891184859371800,10.916371826171876,-0.3343048095703125,0.783599853515625,-0.4930419921875
1782891184869394000,10.926393798828125,-0.3383331298828125,0.790252685546875,-0.4926910400390625
1782891184879415800,10.936415771484375,-0.3468475341796875,0.795257568359375,-0.4951171875
1782891184889438000,10.94643798828125,-0.35430908203125,0.79425048828125,-0.4965667724609375
1782891184899459800,10.9564599609375,-0.3582916259765625,0.79144287109375,-0.495758056640625
1782891184909481700,10.966481689453126,-0.3549652099609375,0.7895660400390625,-0.49468994140625
1782891184919504000,10.97650390625,-0.3489990234375,0.7859649658203125,-0.497100830078125
1782891184929525800,10.98652587890625,-0.3435211181640625,0.784942626953125,-0.49749755859375
1782891184939548700,10.996548583984374,-0.3375701904296875,0.7837677001953125,-0.49200439453125
1782891184949570800,11.00657080078125,-0.3271636962890625,0.7788543701171875,-0.4921112060546875
1782891184959592700,11.0165927734375,-0.3183441162109375,0.7760162353515625,-0.4953460693359375
1782891184969614800,11.02661474609375,-0.3180694580078125,0.7785491943359375,-0.4979400634765625
1782891184979637000,11.036636962890626,-0.329437255859375,0.77630615234375,-0.492279052734375
1782891184989659000,11.046658935546875,-0.3332366943359375,0.7797088623046875,-0.4896087646484375
1782891184999680800,11.0566806640625,-0.3333587646484375,0.7858428955078125,-0.484130859375
1782891185009703000,11.066702880859374,-0.335205078125,0.7841796875,-0.477569580078125
1782891185019724800,11.076724853515625,-0.3364105224609375,0.791168212890625,-0.479766845703125
1782891185029746700,11.08674658203125,-0.343505859375,0.787750244140625,-0.48321533203125
1782891185039768600,11.0967685546875,-0.3655853271484375,0.78131103515625,-0.4959869384765625
1782891185049791000,11.106791015625,-0.3750152587890625,0.78076171875,-0.5094146728515625
1782891185059812900,11.116812744140624,-0.3719940185546875,0.779754638671875,-0.512786865234375
1782891185069834800,11.126834716796875,-0.3692779541015625,0.781951904296875,-0.5126190185546875
1782891185079857000,11.13685693359375,-0.3654937744140625,0.7856903076171875,-0.5119781494140625
1782891185089878800,11.146878662109375,-0.3727569580078125,0.7843780517578125,-0.520172119140625
1782891185099900700,11.156900634765625,-0.3966522216796875,0.7852020263671875,-0.5296783447265625
1782891185109922800,11.1669228515625,-0.4130401611328125,0.801055908203125,-0.5198974609375
1782891185119944700,11.17694482421875,-0.4139556884765625,0.8145599365234375,-0.50286865234375
1782891185129966800,11.186966796875,-0.38970947265625,0.8028411865234375,-0.466033935546875
1782891185139989000,11.196989013671875,-0.348602294921875,0.795928955078125,-0.4757080078125
