time,seconds_elapsed,z,y,x
1782891174010511400,0.067511474609375,1.9575499296188354,-2.479008436203003,-0.6145899295806885
1782891174020533200,0.077533203125,2.0660922527313232,-2.64473295211792,-0.7183405756950378
1782891174030555100,0.08755517578125,2.094038963317871,-2.8523104190826416,-0.8727700710296631
1782891174040577500,0.09757763671875,2.0361533164978027,-3.0405831336975098,-1.0919535160064697
1782891174050599400,0.107599365234375,1.9648029804229736,-3.1622064113616943,-1.3768014907836914
1782891174060621300,0.117621337890625,1.8900991678237915,-3.139228105545044,-1.655368447303772
1782891174070643500,0.1276435546875,1.7742916345596313,-2.944915533065796,-1.8475128412246704
1782891174080665300,0.137665283203125,1.6569373607635498,-2.764192819595337,-2.010817527770996
1782891174090687200,0.147687255859375,1.596251130104065,-2.5458431243896484,-2.150635242462158
1782891174100709000,0.157709228515625,1.5715878009796143,-2.2583987712860107,-2.256387233734131
1782891174110731300,0.167731201171875,1.5134515762329102,-1.8985902070999146,-2.325205087661743
1782891174120753400,0.17775341796875,1.4390984773635864,-1.2135300636291504,-2.2564401626586914
1782891174130775300,0.187775390625,1.440123200416565,-0.35480496287345886,-2.0600507259368896
1782891174140797400,0.19779736328125,1.4518251419067383,0.39739662408828735,-1.8032010793685913
1782891174150819300,0.2078193359375,1.3669781684875488,0.5740835070610046,-1.5604482889175415
1782891174160841200,0.21784130859375,1.1446417570114136,-0.2690482437610626,-1.2568330764770508
1782891174170863400,0.22786328125,0.7913599014282227,-1.4787585735321045,-0.827713668346405
1782891174180885200,0.23788525390625,0.4293878376483917,-2.416095733642578,-0.4637434184551239
1782891174190907100,0.2479072265625,0.32830357551574707,-2.8238205909729004,-0.2614276111125946
1782891174200930300,0.257930419921875,0.4220806658267975,-2.753790855407715,-0.18772675096988678
1782891174210952200,0.2679521484375,0.5269924402236938,-2.3984627723693848,-0.20880568027496338
1782891174220974000,0.27797412109375,0.5880089402198792,-1.8948665857315063,-0.28674787282943726
1782891174230996000,0.287995849609375,0.5754315853118896,-1.3229916095733643,-0.4187906086444855
1782891174241018000,0.29801806640625,0.5104014873504639,-0.8444694876670837,-0.556113064289093
1782891174251040000,0.3080400390625,0.4038180410861969,-0.4822816848754883,-0.6164091229438782
1782891174261062000,0.318061767578125,0.32688143849372864,-0.39507994055747986,-0.5745583772659302
1782891174271083800,0.328083740234375,0.26575392484664917,-0.4424099028110504,-0.4660973846912384
1782891174281106000,0.33810595703125,0.232593834400177,-0.4400295615196228,-0.3515881299972534
1782891174291127800,0.3481279296875,0.2289104163646698,-0.3665952980518341,-0.22910162806510925
1782891174301150000,0.35814990234375,0.23636725544929504,-0.23077276349067688,-0.10323663800954819
1782891174311172000,0.368172119140625,0.23414991796016693,-0.10621938109397888,0.05927078053355217
1782891174321194000,0.378194091796875,0.23067955672740936,-0.0737336054444313,0.24365660548210144
1782891174331216000,0.3882158203125,0.2203534096479416,-0.10805536061525345,0.4063996970653534
1782891174341238000,0.398238037109375,0.20419734716415405,-0.18673260509967804,0.5007078647613525
1782891174351260000,0.408260009765625,0.17375288903713226,-0.22680091857910156,0.4951639473438263
1782891174361281800,0.41828173828125,0.11933917552232742,-0.2366468906402588,0.4007665812969208
1782891174371304000,0.428303955078125,0.0663990005850792,-0.21358764171600342,0.2731122374534607
1782891174381326000,0.438326171875,0.03804325684905052,-0.18171413242816925,0.14828187227249146
1782891174391348000,0.448347900390625,0.009681389667093754,-0.12742292881011963,0.05952058359980583
1782891174401371000,0.458370849609375,-0.01239302009344101,-0.08710640668869019,0.01703118160367012
1782891174411393000,0.46839306640625,-0.03461390361189842,-0.06441307812929153,0.0062219430692493916
1782891174421415000,0.478414794921875,-0.040886446833610535,-0.05987505242228508,0.03644988685846329
1782891174431437000,0.48843701171875,-0.039987631142139435,-0.06683788448572159,0.08283096551895142
1782891174441459000,0.498458984375,-0.025673406198620796,-0.07957018911838531,0.12315148860216141
1782891174451480800,0.508480712890625,-0.027187945321202278,-0.08941510319709778,0.15435229241847992
1782891174461503000,0.5185029296875,-0.03032142110168934,-0.09672574698925018,0.1753007173538208
1782891174471524900,0.52852490234375,-0.03392867371439934,-0.09397496283054352,0.19672664999961853
1782891174481546800,0.538546630859375,-0.03332919627428055,-0.07652167230844498,0.22355027496814728
1782891174491569200,0.548569091796875,-0.03964301571249962,-0.04242255911231041,0.22934743762016296
1782891174501591000,0.558591064453125,-0.05253671109676361,-0.002853044541552663,0.20760512351989746
1782891174511613000,0.568613037109375,-0.06572681665420532,0.034274615347385406,0.1610669195652008
1782891174521635000,0.578635009765625,-0.06875456124544144,0.0750526711344719,0.10699542611837387
1782891174531657000,0.588656982421875,-0.06079064682126045,0.11406105756759644,0.05271860584616661
1782891174541678800,0.598678955078125,-0.0443248525261879,0.13270850479602814,0.0020700751338154078
1782891174551700700,0.60870068359375,-0.025963690131902695,0.12638457119464874,-0.02468111179769039
1782891174561723000,0.618722900390625,-0.011147459968924522,0.12769031524658203,-0.02310159057378769
1782891174571745000,0.6287451171875,-0.004072505980730057,0.14006416499614716,-0.008978581055998802
1782891174581767000,0.638766845703125,-0.005191033706068993,0.1571778953075409,0.003837881376966834
1782891174591789000,0.6487890625,-0.005240834783762693,0.17981263995170593,-0.0019345202017575502
1782891174601812000,0.65881201171875,-0.013540842570364475,0.21558421850204468,-0.007936219684779644
1782891174611834000,0.668834228515625,-0.02503131702542305,0.25646746158599854,-0.02623160369694233
1782891174621856000,0.67885595703125,-0.02906733751296997,0.27192312479019165,-0.04123212397098541
1782891174631878000,0.6888779296875,-0.03496197983622551,0.27928516268730164,-0.04831160604953766
1782891174641899800,0.698899658203125,-0.03407088667154312,0.2695164382457733,-0.04755393788218498
1782891174651922000,0.708921875,-0.02594211883842945,0.24029488861560822,-0.0427866131067276
1782891174661943800,0.71894384765625,-0.012878780253231525,0.2219821959733963,-0.03175553306937218
1782891174671966000,0.728966064453125,-0.010159692727029324,0.2142220139503479,-0.027053987607359886
1782891174681988000,0.738988037109375,-0.004994226153939962,0.20236988365650177,-0.03591645509004593
1782891174692010000,0.749010009765625,-0.0035603800788521767,0.19425523281097412,-0.03551218658685684
1782891174702032000,0.759031982421875,-0.005560680292546749,0.17876096069812775,-0.02057664841413498
1782891174712054000,0.769053955078125,-0.011728295125067234,0.15711557865142822,-0.010588462464511395
1782891174722076000,0.779075927734375,-0.011166101321578026,0.13751551508903503,-0.0043657198548316956
1782891174732097800,0.789097900390625,-0.006044842768460512,0.12477575242519379,-0.009409480728209019
1782891174742120000,0.799119873046875,-0.004947886802256107,0.10249734669923782,-0.029017802327871323
1782891174752142000,0.80914208984375,-0.007552724797278643,0.07492271065711975,-0.05329384654760361
1782891174762164000,0.8191640625,-0.012377041392028332,0.051244545727968216,-0.0691889226436615
1782891174772186000,0.82918603515625,-0.01751055009663105,0.04375147446990013,-0.06728103756904602
1782891174782208000,0.8392080078125,-0.020374514162540436,0.04412458464503288,-0.05692826211452484
1782891174792231000,0.84923095703125,-0.02743775025010109,0.038063760846853256,-0.0404379703104496
1782891174802253000,0.859253173828125,-0.024297615513205528,0.026635872200131416,-0.029564550146460533
1782891174812275000,0.86927490234375,-0.012820457108318806,0.005662412848323584,-0.016439693048596382
1782891174822296800,0.879296875,-0.004502872936427593,-0.014512630179524422,-0.006184925325214863
1782891174832319000,0.889319091796875,0.006777478381991386,-0.026273416355252266,0.0037766287568956614
1782891174842340900,0.8993408203125,0.00998898409307003,-0.0305805467069149,0.003388606244698167
1782891174852362800,0.90936279296875,0.010695254430174828,-0.014795191586017609,-0.009828928858041763
1782891174862385200,0.91938525390625,0.012888900935649872,0.005084773525595665,-0.028187163174152374
1782891174872407000,0.929406982421875,0.016684437170624733,0.02574850618839264,-0.056841444224119186
1782891174882429000,0.939428955078125,0.014882010407745838,0.04273281618952751,-0.07668066024780273
1782891174892451000,0.949451171875,0.022068550810217857,0.04526468366384506,-0.0929776132106781
1782891174902473000,0.959472900390625,0.01817713864147663,0.029166674241423607,-0.10080890357494354
1782891174912494800,0.969494873046875,0.012366920709609985,-0.006684534251689911,-0.09627433866262436
1782891174922516700,0.979516845703125,0.012411662377417088,-0.044260405004024506,-0.07178710401058197
1782891174932539000,0.989538818359375,0.01896117441356182,-0.055448345839977264,-0.03490632027387619
1782891174942561000,0.99956103515625,0.018615761771798134,-0.05520147085189819,-0.0016695356462150812
1782891174952583000,1.0095830078125,0.0136023610830307,-0.04652648791670799,0.021273063495755196
1782891174962605000,1.01960498046875,0.008598548360168934,-0.03152143955230713,0.03039039671421051
1782891174972627000,1.029626953125,0.0008847020799294114,-0.02197134494781494,0.022912239655852318
1782891174982648800,1.03964892578125,-0.003282346064224839,-0.022006232291460037,-0.0006159891490824521
1782891174992672000,1.049672119140625,-0.0038136467337608337,-0.02009567990899086,-0.022827284410595894
1782891175002694000,1.05969384765625,0.0035662390291690826,-0.007837682962417603,-0.04162547364830971
1782891175012716000,1.069716064453125,0.010752246715128422,-0.003032541600987315,-0.05873255431652069
1782891175022738000,1.079738037109375,0.013048956170678139,0.0052168662659823895,-0.06620591878890991
1782891175032759800,1.089759765625,0.014630608260631561,0.02244938164949417,-0.061819691210985184
1782891175042782000,1.099781982421875,0.01852734573185444,0.03401415795087814,-0.0548081211745739
1782891175052804000,1.10980419921875,0.014674017205834389,0.035239480435848236,-0.05153056979179382
1782891175062826000,1.119825927734375,0.009675797075033188,0.02286776527762413,-0.04542500525712967
1782891175072848000,1.129847900390625,0.002865028567612171,0.013363209553062916,-0.029581859707832336
1782891175082870000,1.1398701171875,0.003570500062778592,0.0000015978966985130683,-0.006669886875897646
1782891175092892000,1.149891845703125,0.010212955996394157,-0.010995392687618732,0.014399978332221508
1782891175102913800,1.159913818359375,0.017673801630735397,-0.01375016663223505,0.02714107371866703
1782891175112936000,1.16993603515625,0.01871696300804615,-0.012883841060101986,0.03256060555577278
1782891175122957800,1.179957763671875,0.013746438547968864,-0.0011291803093627095,0.026310699060559273
1782891175132980000,1.18997998046875,0.010967696085572243,0.014766695909202099,0.014682273380458355
1782891175143002000,1.200002197265625,0.011298993602395058,0.028843631967902184,0.0005965480813756585
1782891175153024000,1.21002392578125,0.015340340323746204,0.023745276033878326,-0.00615243474021554
1782891175163046000,1.2200458984375,0.016806410625576973,0.021525265648961067,-0.0031007183715701103
1782891175173068000,1.230068115234375,0.02335166186094284,0.02051832526922226,0.007870705798268318
1782891175183090000,1.24008984375,0.02304193563759327,0.02640737220644951,0.01685168407857418
1782891175193112800,1.25011279296875,0.020074108615517616,0.03074273280799389,0.021501030772924423
1782891175203135000,1.260135009765625,0.010203901678323746,0.04316424950957298,0.019955065101385117
1782891175213156900,1.270156982421875,0.008155398070812225,0.05391436442732811,0.009549562819302082
1782891175223179000,1.280178955078125,0.0044259075075387955,0.05997225642204285,0.002264485927298665
1782891175233201200,1.290201171875,-0.0021939121652394533,0.05851151421666145,-0.0065588331781327724
1782891175243223300,1.300223388671875,-0.0049462891183793545,0.049920421093702316,-0.009099222719669342
1782891175253245200,1.3102451171875,-0.011067830957472324,0.05783000960946083,-0.021193435415625572
1782891175263267300,1.320267333984375,-0.01595499739050865,0.06944432109594345,-0.04231336712837219
1782891175273289200,1.330289306640625,-0.016278039664030075,0.07436584681272507,-0.060142431408166885
1782891175283311000,1.34031103515625,-0.015398397110402584,0.06725387275218964,-0.064162477850914
1782891175293333200,1.350333251953125,-0.016102537512779236,0.05594582483172417,-0.06054350361227989
1782891175303355100,1.360355224609375,-0.01859791949391365,0.03197098150849342,-0.04686390981078148
1782891175313377000,1.370376953125,-0.018631208688020706,0.015092399902641773,-0.02738848142325878
1782891175323399400,1.3803994140625,-0.022222748026251793,0.004622182343155146,-0.0039044604636728764
1782891175333421300,1.39042138671875,-0.02286803163588047,-0.004426972474902868,0.010773285292088985
1782891175343443200,1.400443115234375,-0.016893496736884117,-0.0008029430755414069,0.024892034009099007
1782891175353465000,1.410465087890625,-0.009843575768172741,0.00896846130490303,0.02533092349767685
1782891175363487200,1.4204873046875,-0.002252235310152173,0.006822219584137201,0.020684238523244858
1782891175373509000,1.430509033203125,0.011484349146485329,-0.0005675196298398077,0.018702048808336258
1782891175383531000,1.440531005859375,0.023604661226272583,-0.019661052152514458,0.015291337855160236
1782891175393554200,1.45055419921875,0.036678653210401535,-0.0413849912583828,0.011166101321578026
1782891175403576000,1.460576171875,0.04416133463382721,-0.061461761593818665,0.0006881608278490603
1782891175413598200,1.47059814453125,0.04856087639927864,-0.08044078201055527,-0.0009922938188537955
1782891175423620000,1.4806201171875,0.05698499083518982,-0.09647487103939056,0.002683401107788086
1782891175433642200,1.490642333984375,0.06545783579349518,-0.11037657409906387,0.018737202510237694
1782891175443664100,1.5006640625,0.06536409258842468,-0.11857378482818604,0.033847711980342865
1782891175453686300,1.510686279296875,0.06234779581427574,-0.12566284835338593,0.05083708092570305
1782891175463708200,1.520708251953125,0.06395182013511658,-0.133929044008255,0.06281810998916626
1782891175473730000,1.53072998046875,0.06325220316648483,-0.13252875208854675,0.06998174637556076
1782891175483752200,1.540752197265625,0.050326019525527954,-0.12874706089496613,0.08204106986522675
1782891175493774000,1.550774169921875,0.045586924999952316,-0.12169447541236877,0.08647576719522476
1782891175503796200,1.560796142578125,0.047681234776973724,-0.10345768183469772,0.08611650764942169
1782891175513818400,1.570818359375,0.0499582402408123,-0.06886428594589233,0.06914924085140228
1782891175523840300,1.58084033203125,0.0457184873521328,-0.03361734747886658,0.04860561713576317
1782891175533862100,1.590862060546875,0.04738109931349754,-0.013391172513365746,0.02413170225918293
1782891175543884300,1.60088427734375,0.040641169995069504,0.004226969089359045,0.004248008131980896
1782891175553906200,1.61090625,0.03386928513646126,0.013615677133202553,-0.0063210129737854
1782891175563928000,1.620927978515625,0.0300175528973341,0.018521219491958618,-0.00857271533459425
1782891175573950200,1.6309501953125,0.032274581491947174,0.025480059906840324,0.0007736482657492161
1782891175583972000,1.64097216796875,0.030758710578083992,0.027393007650971413,0.00663526589050889
1782891175593995000,1.6509951171875,0.027464380487799644,0.02702416107058525,0.011727762408554554
1782891175604017200,1.66101708984375,0.01894386298954487,0.029354427009820938,0.010149040259420872
1782891175614039300,1.671039306640625,0.008320247754454613,0.03424904868006706,0.01142948865890503
1782891175624061200,1.681061279296875,0.0022919164039194584,0.038907185196876526,0.001056209672242403
1782891175634083300,1.691083251953125,-0.003971838392317295,0.03838014602661133,-0.0004623247659765184
1782891175644105200,1.701105224609375,-0.00461685610935092,0.034506045281887054,-0.006740460637956858
1782891175654127000,1.711127197265625,-0.0009118663729168475,0.031207719817757607,-0.008499478921294212
1782891175664149200,1.721149169921875,0.004625910893082619,0.024348216131329536,-0.0004242415598127991
1782891175674171100,1.731171142578125,0.007071491796523333,0.01513021718710661,0.0073319487273693085
1782891175684193000,1.741193115234375,0.012114186771214008,0.012234828434884548,0.017798438668251038
1782891175694215400,1.75121533203125,0.013586915098130703,0.01660693995654583,0.01907595619559288
1782891175704237300,1.7612373046875,0.01218635868281126,0.008258729241788387,0.018093250691890717
1782891175714259200,1.77125927734375,0.009912817738950253,0.00628905463963747,0.003213103860616684
1782891175724281000,1.781281005859375,0.01329956017434597,-0.0008855010382831097,-0.003442135639488697
1782891175734303200,1.79130322265625,0.011438809335231781,-0.003819771809503436,-0.0035390746779739857
1782891175744325000,1.8013251953125,0.007411843631416559,-0.008284561336040497,0.00732449209317565
1782891175754347000,1.811346923828125,0.007773234508931637,-0.0181699488312006,0.02202301099896431
1782891175764369200,1.821369140625,-0.0025574336759746075,-0.028309136629104614,0.034806717187166214
1782891175774391300,1.831391357421875,-0.0008892294717952609,-0.019965719431638718,0.048344895243644714
1782891175784413200,1.8414130859375,0.003885818412527442,-0.015210377983748913,0.05217372253537178
1782891175794435300,1.851435302734375,0.005363606382161379,-0.01128301490098238,0.050567302852869034
1782891175804457200,1.861457275390625,0.005957491230219603,-0.00663366774097085,0.04138392582535744
1782891175814480400,1.87148046875,0.0065497783944010735,-0.004430434666574001,0.024814004078507423
1782891175824502300,1.881502197265625,0.004053330980241299,-0.0026410568971186876,0.01525645051151514
1782891175834524200,1.891524169921875,-0.002100701443850994,-0.002243979601189494,0.004450408276170492
1782891175844546000,1.901546142578125,-0.008710933849215508,-0.003961984533816576,0.0036855486687272787
1782891175854568200,1.911568115234375,-0.017307883128523827,0.00253532943315804,0.0019148128340020776
1782891175864590000,1.921590087890625,-0.02298281341791153,0.007133277133107185,0.0027177559677511454
1782891175874612000,1.931612060546875,-0.02576315402984619,0.013128318823873997,0.0016860472969710827
1782891175884634400,1.94163427734375,-0.01944533735513687,0.02376951090991497,-0.0031459920573979616
1782891175894656300,1.95165625,-0.020349746569991112,0.033364083617925644,-0.0075812204740941525
1782891175904678100,1.96167822265625,-0.019593408331274986,0.0356203131377697,-0.009636381641030312
1782891175914700300,1.9717001953125,-0.01890072040259838,0.03003060258924961,-0.007105846423655748
1782891175924722200,1.98172216796875,-0.02803909219801426,0.024216389283537865,-0.004160390235483646
1782891175934744000,1.991744140625,-0.023899206891655922,0.011518438346683979,0.003323092358186841
1782891175944766200,2.00176611328125,-0.020551348105072975,0.0004801679460797459,0.008732505142688751
1782891175954788000,2.0117880859375,-0.019836289808154106,0.0011531487107276917,0.014855911023914814
1782891175964810200,2.021810302734375,-0.027423368766903877,0.0010546117555350065,0.010149040259420872
1782891175974832400,2.031832275390625,-0.033727869391441345,-0.011846273206174374,0.0036125779151916504
1782891175984854300,2.041854248046875,-0.0317121222615242,-0.022247249260544777,-0.0054581486620008945
1782891175994876200,2.051876220703125,-0.027036411687731743,-0.008232896216213703,-0.004323109518736601
1782891176004898000,2.06189794921875,-0.028483839705586433,-0.008081096224486828,-0.008760734461247921
1782891176014920200,2.071920166015625,-0.02617487870156765,0.0030746194534003735,-0.0037001960445195436
1782891176024942000,2.081942138671875,-0.022880015894770622,0.007844074629247189,-0.002448510378599167
1782891176034965200,2.09196533203125,-0.02442731149494648,0.004752677399665117,0.0030368026345968246
1782891176044987100,2.101987060546875,-0.016572318971157074,-0.002376871183514595,0.01780296489596367
1782891176055009000,2.112009033203125,-0.007831024937331676,-0.004217115696519613,0.03335342928767204
1782891176065031200,2.12203125,0.0034085798542946577,0.0023909860756248236,0.03873834013938904
1782891176075053300,2.13205322265625,0.007952465675771236,0.02063284069299698,0.02887505665421486
1782891176085075200,2.1420751953125,0.005850432440638542,0.04254692792892456,0.006687996443361044
1782891176095097300,2.152097412109375,0.007215568795800209,0.05494900420308113,-0.01672731526196003
1782891176105119200,2.162119140625,0.011431085877120495,0.06729142367839813,-0.03527276962995529
1782891176115141000,2.17214111328125,0.009738114662468433,0.07607612758874893,-0.04412245377898216
1782891176125163000,2.1821630859375,0.006091448478400707,0.07745590806007385,-0.04712862893939018
1782891176135185200,2.19218505859375,0.0018314558546990156,0.0739823505282402,-0.039021167904138565
1782891176145207000,2.20220703125,-0.0007070692372508347,0.07010132074356079,-0.02689845860004425
1782891176155229200,2.212229248046875,-0.0010689928894862533,0.057488325983285904,-0.013540309853851795
1782891176165251300,2.222251220703125,0.0012543488992378116,0.030235134065151215,-0.0008223841432482004
1782891176175273200,2.232273193359375,0.0006135923322290182,0.009415073320269585,0.009444634430110455
1782891176185295000,2.242295166015625,0.00210735946893692,-0.005643771030008793,0.021460816264152527
1782891176195317200,2.252317138671875,-0.002862099092453718,-0.003519101068377495,0.014940333552658558
1782891176205339100,2.262339111328125,-0.008875783532857895,0.004649879410862923,-0.0009158611064776778
1782891176215361000,2.272361083984375,-0.010580472648143768,0.0030629015527665615,-0.015995744615793228
1782891176225383000,2.2823828125,-0.015511048957705498,-0.0015909724170342088,-0.017728930339217186
1782891176235404800,2.29240478515625,-0.02129809744656086,-0.013459882698953152,-0.017559818923473358
1782891176245428000,2.302427978515625,-0.021021928638219833,-0.029153890907764435,0.0018064221367239952
1782891176255449900,2.312449951171875,-0.019421368837356567,-0.037148699164390564,0.025967152789235115
1782891176265471700,2.3224716796875,-0.01756594330072403,-0.046060703694820404,0.04891028627753258
1782891176275494000,2.332493896484375,-0.01522875390946865,-0.05305815860629082,0.06149212270975113
1782891176285515800,2.342515869140625,-0.010638263076543808,-0.04657868668437004,0.061882007867097855
1782891176295537700,2.35253759765625,-0.008553008548915386,-0.037703171372413635,0.05517670139670372
1782891176305559800,2.362559814453125,-0.0024714134633541107,-0.023696541786193848,0.03710955008864403
1782891176315581700,2.372581787109375,-0.008624913170933723,-0.0034200313966721296,0.015296930447220802
1782891176325603800,2.382603759765625,-0.01464818511158228,0.003483947366476059,-0.0023345269728451967
1782891176335626000,2.3926259765625,-0.013513944111764431,0.004963599611073732,-0.013736052438616753
1782891176345647900,2.40264794921875,-0.014162956736981869,0.00694845337420702,-0.01587563566863537
1782891176355669800,2.412669677734375,-0.007081345189362764,0.017039170488715172,-0.022397184744477272
1782891176365692000,2.42269189453125,-0.0020010992884635925,0.027331756427884102,-0.029923010617494583
1782891176375713800,2.4327138671875,-0.004512459971010685,0.027607392519712448,-0.03343998268246651
1782891176385735700,2.442735595703125,-0.00079735042527318,0.022609971463680267,-0.025650767609477043
1782891176395757800,2.4527578125,-0.001698564155958593,0.013817278668284416,-0.004989165812730789
1782891176405779700,2.46277978515625,-0.004193413536995649,0.002490055514499545,0.01531796995550394
1782891176415801900,2.4728017578125,-0.008873919025063515,-0.003450924064964056,0.03385596722364426
1782891176425824000,2.482823974609375,-0.011344267055392265,-0.011877432465553284,0.043479032814502716
1782891176435846000,2.492845947265625,-0.011364507488906384,-0.013754960149526596,0.04463937506079674
1782891176445867800,2.50286767578125,-0.012045211158692837,-0.006454170681536198,0.03284742683172226
1782891176455891000,2.512890869140625,-0.013471334241330624,0.005239769350737333,0.0174397099763155
1782891176465912800,2.522912841796875,-0.01435310672968626,0.016757940873503685,0.002947852946817875
1782891176475934700,2.532934814453125,-0.015268434770405293,0.025902703404426575,-0.003457049373537302
1782891176485956900,2.542956787109375,-0.010843326337635517,0.021755628287792206,-0.005447229836136103
1782891176495978800,2.552978759765625,-0.005780124571174383,0.010951983742415905,-0.007868842221796513
1782891176506000600,2.563000732421875,-0.0003206445835530758,0.0036658411845564842,-0.007985488511621952
1782891176516023000,2.57302294921875,-0.0009635316673666239,0.0016735304379835725,-0.02111487276852131
1782891176526045000,2.583044921875,-0.011844941414892673,0.0052147358655929565,-0.02346164919435978
1782891176536066800,2.59306689453125,-0.013540842570364475,0.007178816944360733,-0.01871403306722641
1782891176546088700,2.603088623046875,-0.01913108304142952,0.0020698087755590677,0.003343865042552352
1782891176556110800,2.61311083984375,-0.019780894741415977,-0.0024114924017339945,0.02382064424455166
1782891176566132700,2.6231328125,-0.015268701128661633,-0.013459349982440472,0.04092426225543022
1782891176576154600,2.633154541015625,-0.010947190225124359,-0.01912655681371689,0.04940270259976387
1782891176586176800,2.6431767578125,-0.003973968792706728,-0.012855610810220242,0.0416390560567379
1782891176596199000,2.653198974609375,0.00418515782803297,0.00028096348978579044,0.03099679760634899
1782891176606220800,2.663220703125,0.012522716075181961,0.013612481765449047,0.01715981215238571
1782891176616243000,2.673242919921875,0.012438027188181877,0.026823891326785088,0.009185508824884892
1782891176626264800,2.683264892578125,0.015746738761663437,0.03437954559922218,0.002531600883230567
1782891176636286700,2.69328662109375,0.020780911669135094,0.043060384690761566,-0.0011771172285079956
1782891176646308900,2.703308837890625,0.03279922530055046,0.04434802383184433,0.012437760829925537
1782891176656330800,2.713330810546875,0.03454732522368431,0.03596705570816994,0.023092269897460938
1782891176666353700,2.723353759765625,0.045094508677721024,0.02563612163066864,0.035416845232248306
1782891176676375800,2.733375732421875,0.05686008557677269,0.018329739570617676,0.04456879943609238
1782891176686397700,2.743397705078125,0.05392368510365486,0.015854330733418465,0.03767627105116844
1782891176696419800,2.753419921875,0.05349864438176155,0.011782890185713768,0.024955417960882187
1782891176706442000,2.76344189453125,0.048469532281160355,0.008281099610030651,0.009557286277413368
1782891176716463900,2.7734638671875,0.04000121355056763,-0.002892725635319948,-0.006743922829627991
1782891176726485800,2.78348583984375,0.03357100859284401,-0.016627179458737373,-0.005648031830787659
1782891176736508000,2.7935078125,0.028553614392876625,-0.028375715017318726,0.007130879908800125
1782891176746529800,2.80352978515625,0.021163875237107277,-0.04430221766233444,0.030415430665016174
1782891176756551700,2.8135517578125,0.02141927182674408,-0.054542336612939835,0.04784928262233734
1782891176766573800,2.82357373046875,0.020600883290171623,-0.05560493841767311,0.05464326962828636
1782891176776595700,2.833595703125,0.022724753245711327,-0.051535364240407944,0.04905276373028755
1782891176786617900,2.843617919921875,0.025970613583922386,-0.0504799522459507,0.03881184384226799
1782891176796640000,2.853639892578125,0.031496938318014145,-0.04788230359554291,0.026548786088824272
1782891176806662000,2.863661865234375,0.03105911612510681,-0.04505695775151253,0.019119897857308388
1782891176816683800,2.873683837890625,0.02720392309129238,-0.0430326871573925,0.014451643452048302
1782891176826705700,2.88370556640625,0.02112232893705368,-0.03399604931473732,0.014099573716521263
1782891176836727800,2.893727783203125,0.018724685534834862,-0.028313929215073586,0.011183678172528744
1782891176846749700,2.903749755859375,0.01612837053835392,-0.016562998294830322,0.011545868590474129
1782891176856771600,2.913771484375,0.012406336143612862,-0.01341673918068409,0.006054163910448551
1782891176866794000,2.9237939453125,0.013489710167050362,-0.014987737871706486,0.008900283835828304
1782891176876816000,2.93381591796875,0.008318383246660233,-0.015232481993734837,0.0026581010315567255
1782891176886839000,2.943839111328125,0.005489573813974857,-0.01528574526309967,-0.004215783905237913
1782891176896861000,2.95386083984375,0.0065013086423277855,-0.015365107916295528,-0.009307481348514557
1782891176906882800,2.9638828125,0.0028421254828572273,-0.01489213015884161,-0.013832458294928074
1782891176916905000,2.973905029296875,0.004579305648803711,-0.018205635249614716,-0.010340255685150623
1782891176926926800,2.9839267578125,0.005583050660789013,-0.017121994867920876,-0.006146309431642294
1782891176936948700,2.99394873046875,0.0031372036319226027,-0.0099596893414855,0.005575061310082674
1782891176946970600,3.003970703125,-0.0001573928166180849,-0.0017470336752012372,0.01744397170841694
1782891176956992800,3.01399267578125,-0.0005456816870719194,0.009927731938660145,0.018936140462756157
1782891176967015000,3.024014892578125,0.00029348034877330065,0.01631612330675125,0.020769726485013962
1782891176977036800,3.034036865234375,0.0007118629291653633,0.012109925970435143,0.013187174685299397
1782891176987059000,3.044058837890625,0.0028394623659551144,0.004479437135159969,0.013230584561824799
1782891176997080800,3.054080810546875,0.003988882526755333,-0.005929261911660433,0.014272945001721382
1782891177007102700,3.064102783203125,0.005906092468649149,-0.015008244663476944,0.011709386482834816
1782891177017124900,3.074124755859375,0.004276504274457693,-0.014267352409660816,0.0006820355774834752
1782891177027146800,3.084146728515625,0.005803826730698347,-0.009297627955675125,-0.011540542356669903
1782891177037168600,3.094168701171875,0.0017185378819704056,0.0076126460917294025,-0.020551348105072975
1782891177047190800,3.104190673828125,0.0034852789249271154,0.01575898937880993,-0.025949841365218163
1782891177057213000,3.114212890625,0.003597398055717349,0.018877817317843437,-0.019994746893644333
1782891177067234800,3.12423486328125,-0.0018381137633696198,0.016880180686712265,-0.015430089086294174
1782891177077257000,3.134257080078125,-0.006083725020289421,0.00592553336173296,-0.008290153928101063
1782891177087279900,3.14427978515625,0.0028844696935266256,-0.0068272799253463745,-0.0014114753575995564
1782891177097301800,3.1543017578125,0.01101350225508213,-0.018280737102031708,0.006636863574385643
1782891177107324000,3.164323974609375,0.016346216201782227,-0.02576501853764057,0.010190052911639214
1782891177117345800,3.174345703125,0.019810989499092102,-0.031749941408634186,0.01309050153940916
1782891177127367700,3.18436767578125,0.018263692036271095,-0.02977866865694523,0.009432650171220303
1782891177137389800,3.194389892578125,0.012137622572481632,-0.02718927711248398,0.007384679280221462
1782891177147411700,3.20441162109375,0.0067604342475533485,-0.022358568385243416,0.009879262186586857
1782891177157433900,3.214433837890625,0.004107393324375153,-0.020788103342056274,0.004596083424985409
1782891177167456000,3.2244560546875,0.0016743293963372707,-0.014778945595026016,0.00021997711155563593
1782891177177478000,3.234477783203125,0.006056561134755611,-0.01786048896610737,-0.010186058469116688
1782891177187499800,3.244499755859375,0.012692625634372234,-0.020475713536143303,-0.006867227144539356
1782891177197522000,3.25452197265625,0.01782187446951866,-0.02847105637192726,0.0029787456151098013
1782891177207543800,3.264543701171875,0.026312563568353653,-0.041068341583013535,0.009378321468830109
1782891177217565700,3.274565673828125,0.02851659618318081,-0.04466680437326431,0.011043063364923
1782891177227588400,3.28458837890625,0.029226329177618027,-0.04880242794752121,0.013481187634170055
1782891177237610200,3.2946103515625,0.030231937766075134,-0.048643968999385834,0.018273545429110527
1782891177247632400,3.30463232421875,0.030374150723218918,-0.0483986921608448,0.01955505833029747
1782891177257654500,3.314654541015625,0.02678580768406391,-0.05016090348362923,0.01840830221772194
1782891177267676400,3.324676513671875,0.02864149771630764,-0.0562712624669075,0.02143178880214691
1782891177277698600,3.334698486328125,0.02690538391470909,-0.06185031682252884,0.025660889223217964
1782891177287720400,3.344720458984375,0.022472552955150604,-0.06272223591804504,0.026201244443655014
1782891177297742300,3.354742431640625,0.02335432544350624,-0.059234827756881714,0.02876400388777256
1782891177307765500,3.364765625,0.02574903890490532,-0.048178981989622116,0.03056749701499939
1782891177317787400,3.374787353515625,0.028303809463977814,-0.033544111996889114,0.0331619493663311
1782891177327809300,3.384809326171875,0.035102859139442444,-0.020911406725645065,0.043233755975961685
1782891177337831400,3.39483154296875,0.036497823894023895,-0.018976887688040733,0.04399542137980461
1782891177347853300,3.404853271484375,0.03717533126473427,-0.021689316257834435,0.03936977684497833
1782891177357875500,3.41487548828125,0.045762162655591965,-0.011172492988407612,0.03361788019537926
1782891177367897600,3.424897705078125,0.05856504291296005,0.004600344225764275,0.027113109827041626
1782891177377919500,3.43491943359375,0.06446101516485214,0.017316672950983047,0.007286142557859421
1782891177387941400,3.44494140625,0.06538166850805283,0.017784057185053825,-0.011149589903652668
1782891177397963500,3.454963623046875,0.060024987906217575,0.021697571501135826,-0.01932096667587757
1782891177407985400,3.4649853515625,0.05543582886457443,0.007868309505283833,-0.010264622047543526
1782891177418007300,3.47500732421875,0.044554952532052994,-0.011243599466979504,0.0067756143398582935
1782891177428029400,3.485029541015625,0.03166951239109039,-0.022160962224006653,0.03062635287642479
1782891177438051600,3.495051513671875,0.02936641126871109,-0.02431492693722248,0.04808683693408966
1782891177448073500,3.505073486328125,0.02087305672466755,-0.028603682294487953,0.05259023979306221
1782891177458095600,3.515095703125,0.016437828540802002,-0.03332173824310303,0.060739777982234955
1782891177468117500,3.525117431640625,0.017370201647281647,-0.03934820368885994,0.06593427807092667
1782891177478139400,3.535139404296875,0.012328305281698704,-0.03513641655445099,0.06063538417220116
1782891177488161300,3.545161376953125,0.003471164032816887,-0.02335033006966114,0.04902959242463112
1782891177498183400,3.555183349609375,-0.0033984598703682423,-0.012632704339921474,0.034267425537109375
1782891177508205300,3.565205322265625,-0.010835603810846806,0.003719104453921318,0.02076227031648159
1782891177518227500,3.5752275390625,-0.013635384850203991,0.019526297226548195,0.008296279236674309
1782891177528249600,3.58524951171875,-0.013741911388933659,0.03320083022117615,-0.007172425277531147
1782891177538272300,3.595272216796875,-0.010359696112573147,0.04537813365459442,-0.017126522958278656
1782891177548294700,3.605294677734375,-0.008237423375248909,0.058996476233005524,-0.028012992814183235
1782891177558316500,3.615316650390625,-0.00899642426520586,0.06120317056775093,-0.03955113887786865
1782891177568338400,3.62533837890625,-0.00768881244584918,0.05049433186650276,-0.03830957040190697
1782891177578360600,3.635360595703125,-0.007378287613391876,0.03431669622659683,-0.035663455724716187
1782891177588382500,3.645382568359375,-0.006580937188118696,0.018859973177313805,-0.021954568102955818
1782891177598404400,3.655404296875,-0.0005427522119134665,0.007252586539834738,-0.0029089709278196096
1782891177608426200,3.66542626953125,0.00045380264054983854,0.0009502158500254154,0.013046293519437313
1782891177618448400,3.675448486328125,0.0001757686259225011,0.0012626046082004905,0.022578811272978783
1782891177628470500,3.685470458984375,-0.0032682311721146107,0.0018604843644425273,0.02636396326124668
1782891177638492400,3.695492431640625,-0.008058725856244564,-0.004582501482218504,0.02809395268559456
1782891177648514600,3.7055146484375,-0.011561847291886806,-0.004424042999744415,0.027359185740351677
1782891177658536400,3.715536376953125,-0.006136189214885235,-0.008207862265408039,0.024694694206118584
1782891177668558300,3.725558349609375,-0.0019707391038537025,-0.009118929505348206,0.017606690526008606
1782891177678580500,3.73558056640625,-0.003165965899825096,0.00004500742215896025,0.015035408549010754
1782891177688602400,3.745602294921875,-0.004723382648080587,-0.0003384877636563033,0.006702643819153309
1782891177698624300,3.755624267578125,-0.005864813458174467,-0.0009145294898189604,0.0016421051695942879
1782891177708646700,3.765646728515625,-0.008746087551116943,-0.0009720537927933037,-0.006679740734398365
1782891177718668500,3.77566845703125,-0.008983108215034008,-0.0013677994720637798,-0.007587079424411058
1782891177728690400,3.7856904296875,-0.01261193212121725,0.0006772418855689466,0.00012596751912496984
1782891177738712600,3.795712646484375,-0.015174957923591137,-0.001987517112866044,0.008612396195530891
1782891177748734500,3.805734375,-0.011842278763651848,-0.007333546411246061,0.017776334658265114
1782891177758757400,3.81575732421875,-0.010493920184671879,-0.0144710848107934,0.02063896507024765
1782891177768779500,3.825779541015625,-0.010176471434533596,-0.01907222718000412,0.014393586665391922
1782891177778801400,3.835801513671875,-0.010840130969882011,-0.008815063163638115,0.0014732606941834092
1782891177788823300,3.8458232421875,-0.011593539267778397,-0.005563876125961542,-0.01679389365017414
1782891177798845400,3.855845458984375,-0.017048757523298264,-0.0017744642682373524,-0.0153738958761096
1782891177808867300,3.865867431640625,-0.01673823408782482,-0.011862518265843391,-0.010732272639870644
1782891177818889500,3.875889404296875,-0.017619473859667778,-0.024948492646217346,0.0019465044606477022
1782891177828911600,3.88591162109375,-0.01774197816848755,-0.036136697977781296,0.012566125951707363
1782891177838933500,3.89593359375,-0.01389770582318306,-0.038660578429698944,0.027351463213562965
1782891177848955400,3.905955322265625,-0.007296528667211533,-0.04436773061752319,0.02347523160278797
1782891177858977500,3.9159775390625,-0.0038866172544658184,-0.04493578150868416,0.023144733160734177
1782891177868999400,3.92599951171875,-0.004246144089847803,-0.04506441205739975,0.02424701675772667
1782891177879021300,3.936021240234375,-0.0010229201288893819,-0.04382524639368057,0.027905933558940887
1782891177889043500,3.94604345703125,0.004252802114933729,-0.04372883960604668,0.03122636303305626
1782891177899065600,3.956065673828125,0.004995557479560375,-0.03470897674560547,0.03105778433382511
1782891177909087500,3.96608740234375,0.011078749783337116,-0.020536700263619423,0.021915152668952942
1782891177919107300,3.976107421875,0.008677111007273197,0.0005075985100120306,0.00663606496527791
1782891177929129500,3.98612939453125,0.010673150420188904,0.020736703649163246,-0.008161523379385471
1782891177939151600,3.996151611328125,0.008528507314622402,0.035905271768569946,-0.022836606949567795
1782891177949173500,4.006173583984375,0.006521814968436956,0.042570095509290695,-0.025961292907595634
1782891177959195400,4.0161953125,0.0014940333785489202,0.05203470587730408,-0.024171115830540657
1782891177969217500,4.026217529296875,-0.002025866648182273,0.0474545992910862,-0.017666079103946686
1782891177979239400,4.036239501953125,-0.0070461914874613285,0.048700425773859024,-0.012527243234217167
1782891177989261300,4.04626123046875,-0.017647702246904373,0.048765141516923904,-0.00711623253300786
1782891177999283500,4.056283447265625,-0.029564283788204193,0.04404575377702713,-0.00299286050722003
1782891178009305600,4.0663056640625,-0.03509114310145378,0.03827175498008728,-0.0016823188634589314
1782891178019327500,4.076327392578125,-0.0326911024749279,0.03323571756482124,-0.0015286544803529978
1782891178029349400,4.086349365234375,-0.038057103753089905,0.03464479744434357,0.0015941682504490018
1782891178039372500,4.09637255859375,-0.037645645439624786,0.036612607538700104,-0.004249606281518936
1782891178049394400,4.10639453125,-0.03476464003324509,0.04000280797481537,-0.011188738979399204
1782891178059416600,4.11641650390625,-0.03329324349761009,0.041604965925216675,-0.01733398251235485
1782891178069438500,4.1264384765625,-0.026755448430776596,0.041675008833408356,-0.021793978288769722
1782891178079460400,4.13646044921875,-0.02365419641137123,0.04591476172208786,-0.026628680527210236
1782891178089482500,4.146482421875,-0.01483194250613451,0.051715657114982605,-0.02582627162337303
1782891178099504400,4.15650439453125,-0.006196110509335995,0.05252925306558609,-0.02503051795065403
1782891178109526300,4.1665263671875,0.00019707392493728548,0.05212152376770973,-0.01930871605873108
1782891178119548400,4.17654833984375,0.001680720946751535,0.045753639191389084,-0.010061688721179962
1782891178129570600,4.186570556640625,0.0037729002069681883,0.031027425080537796,-0.004539357963949442
1782891178139592400,4.196592529296875,0.007822769694030285,0.02142246812582016,0.004056793171912432
1782891178149614300,4.2066142578125,0.002974750939756632,0.013877732679247856,0.013732589781284332
1782891178159636500,4.216636474609375,-0.00023036343918647617,0.006822752300649881,0.019228288903832436
1782891178169658400,4.226658447265625,-0.008040349930524826,0.01056049857288599,0.01619042083621025
1782891178179680300,4.23668017578125,-0.01401515118777752,0.016686568036675453,0.012528841383755207
1782891178189702400,4.246702392578125,-0.01679575815796852,0.020867465063929558,0.0027486486360430717
1782891178199724500,4.256724609375,-0.021134845912456512,0.024338096380233765,-0.003611246356740594
1782891178209746400,4.266746337890625,-0.018388062715530396,0.031329959630966187,-0.006755374372005463
1782891178219768600,4.2767685546875,-0.013321397826075554,0.03182131424546242,-0.013494237326085567
1782891178229790000,4.2867900390625,-0.007395864464342594,0.03302000090479851,-0.014841796830296516
1782891178239811800,4.296811767578125,-0.007481618318706751,0.027648938819766045,-0.012195413932204247
1782891178249834000,4.306833984375,-0.0017409083666279912,0.018571553751826286,0.0009294432238675654
1782891178259856000,4.31685595703125,-0.0035475967451930046,0.01506843138486147,0.009818808175623417
1782891178269878000,4.3268779296875,-0.00205223192460835,0.01561224926263094,0.022009694948792458
1782891178279901000,4.33690087890625,0.0034290861804038286,0.021372932940721512,0.024030501022934914
1782891178289923000,4.346923095703125,0.004320446401834488,0.025913089513778687,0.02173032984137535
1782891178299946000,4.356946044921875,0.010124805383384228,0.030658310279250145,0.013624466024339199
1782891178309968000,4.3669677734375,0.016984043642878532,0.027399666607379913,0.0007669904152862728
1782891178319990000,4.376989990234375,0.01691586710512638,0.02346031926572323,-0.01155918464064598
1782891178330012200,4.38701220703125,0.015863917768001556,0.023332752287387848,-0.017829596996307373
1782891178340034000,4.397033935546875,0.016453009098768234,0.02352716401219368,-0.016683638095855713
1782891178350056000,4.407055908203125,0.011266236193478107,0.018984876573085785,-0.009520800784230232
1782891178360078000,4.417078125,0.00780625781044364,0.012033759616315365,0.008391354233026505
1782891178370100000,4.427099853515625,0.0014658038271591067,-0.0007001450285315514,0.02321903593838215
1782891178380123000,4.437122802734375,0.005181978922337294,-0.021044032648205757,0.03518674895167351
1782891178390145000,4.44714501953125,-0.002603239845484495,-0.02869449555873871,0.044548824429512024
1782891178400167000,4.4571669921875,-0.01070883683860302,-0.026814837008714676,0.041912294924259186
1782891178410188800,4.467188720703125,-0.010386328212916851,-0.02190663106739521,0.03194515034556389
1782891178420211200,4.477211181640625,-0.012978382408618927,-0.013768009841442108,0.023370303213596344
1782891178430233000,4.487233154296875,-0.016352608799934387,-0.008113586343824863,0.013778130523860455
1782891178440255000,4.4972548828125,-0.01636832021176815,-0.004634432960301638,-0.0008327704854309559
1782891178450277000,4.507277099609375,-0.012041483074426651,0.002668487373739481,-0.006651777308434248
1782891178460299000,4.517299072265625,-0.012890764512121677,0.004506334662437439,-0.011029748246073723
1782891178470321000,4.52732080078125,-0.011464908719062805,0.0031124362722039223,-0.008213188499212265
1782891178480342800,4.5373427734375,-0.006392918061465025,0.0081514036282897,-0.005351089406758547
1782891178490365000,4.547364990234375,-0.0016735304379835725,0.015299860388040543,-0.009579923003911972
1782891178500387000,4.557386962890625,-0.000021305288100847974,0.01840190961956978,-0.012600480578839779
1782891178510409000,4.567408935546875,0.005391037091612816,0.019297530874609947,-0.01792307384312153
1782891178520431000,4.57743115234375,0.00996022205799818,0.01774357631802559,-0.017297497019171715
1782891178530453000,4.587452880859375,0.018665296956896782,0.00851252768188715,-0.007274956908077002
1782891178540475000,4.597474853515625,0.021098626777529716,-0.0004596615908667445,0.0027055053506046534
1782891178550497000,4.6074970703125,0.02225443907082081,-0.006138586439192295,0.013073457404971123
1782891178560519000,4.617518798828125,0.023357253521680832,-0.010631871409714222,0.019665580242872238
1782891178570540800,4.627540771484375,0.023811589926481247,-0.009372995235025883,0.018075939267873764
1782891178580563000,4.63756298828125,0.023813454434275627,-0.0011249192757532,0.011652661487460136
1782891178590585000,4.647585205078125,0.022954585030674934,0.010931210592389107,-0.0023497070651501417
1782891178600607000,4.65760693359375,0.020906081423163414,0.021027253940701485,-0.015391206368803978
1782891178610630100,4.667630126953125,0.022394521161913872,0.02478284388780594,-0.027106186375021935
1782891178620652000,4.677652099609375,0.025260083377361298,0.029162678867578506,-0.030225280672311783
1782891178630674000,4.687673828125,0.02793016843497753,0.02521933615207672,-0.031028224155306816
1782891178640696000,4.697696044921875,0.022012891247868538,0.017074324190616608,-0.026986343786120415
1782891178650718000,4.707718017578125,0.014329404570162296,0.016078302636742592,-0.023493342101573944
1782891178660739800,4.71773974609375,0.008101335726678371,0.011356517672538757,-0.024230770766735077
1782891178670762000,4.727761962890625,-0.00003968110104324296,0.007992679253220558,-0.021503960713744164
1782891178680784000,4.737783935546875,-0.0022386531345546246,0.002168612089008093,-0.014331800863146782
1782891178690806000,4.747805908203125,-0.002766757970675826,-0.0057138120755553246,-0.0026413232553750277
1782891178700828200,4.757828125,0.0029529130551964045,-0.005771602503955364,0.005627259146422148
1782891178710850000,4.76785009765625,0.0064975805580616,-0.0020479708909988403,0.008225971832871437
1782891178720872000,4.777871826171875,0.005568403284996748,0.008533034473657608,0.005309277679771185
1782891178730894000,4.78789404296875,0.003933755215257406,0.012676114216446877,-0.004930043593049049
1782891178740916000,4.797916015625,0.0028277444653213024,0.010105364955961704,-0.022182533517479897
1782891178750937900,4.807937744140625,0.0070888022892177105,0.014675615355372429,-0.0306340754032135
1782891178760959700,4.817959716796875,0.0030660973861813545,0.014547517523169518,-0.033014941960573196
1782891178770982100,4.827982177734375,0.007224889472126961,0.008357265964150429,-0.021751901134848595
1782891178781004000,4.838004150390625,0.007421697489917278,0.012849751859903336,-0.010129866190254688
1782891178791026000,4.84802587890625,0.008342884480953217,0.01702665351331234,0.0031241541728377342
1782891178801048000,4.858048095703125,0.005203816574066877,0.023148195818066597,0.005077849142253399
1782891178811070000,4.868070068359375,-0.0033252229914069176,0.03020983375608921,0.0029028456192463636
1782891178821091800,4.878091796875,-0.007860586047172546,0.03339071199297905,-0.005269596818834543
1782891178831114000,4.888114013671875,-0.010931210592389107,0.028141623362898827,-0.01059059239923954
1782891178841137000,4.898136962890625,-0.011847338639199734,0.02719114162027836,-0.014799718745052814
1782891178851159000,4.908158935546875,-0.015058045275509357,0.034758247435092926,-0.02148425206542015
1782891178861181000,4.918180908203125,-0.014635135419666767,0.04403403773903847,-0.03098374791443348
1782891178871203000,4.928203125,-0.016708139330148697,0.045034851878881454,-0.029864421114325523
1782891178881225000,4.938224853515625,-0.0169741902500391,0.038241129368543625,-0.023924240842461586
1782891178891247000,4.9482470703125,-0.022656043991446495,0.02683001570403576,-0.011083277873694897
1782891178901269000,4.95826904296875,-0.02732589654624462,0.01769297756254673,-0.0065740132704377174
1782891178911291000,4.968290771484375,-0.033305492252111435,0.014406636357307434,-0.006412359420210123
1782891178921313000,4.97831298828125,-0.02835041470825672,0.017302557826042175,-0.008104265667498112
1782891178931335000,4.9883349609375,-0.02159717120230198,0.0256358552724123,-0.012635900638997555
1782891178941356800,4.998356689453125,-0.01824025623500347,0.024172181263566017,-0.011766644194722176
1782891178951379000,5.00837890625,-0.015182947739958763,0.014747254550457,-0.007937551476061344
1782891178961401000,5.018401123046875,-0.01218955498188734,0.011363175697624683,-0.0041670482605695724
1782891178971423000,5.028423095703125,-0.01167556457221508,0.015119298361241817,-0.005920207127928734
1782891178981445000,5.038445068359375,-0.010104299522936344,0.01853560097515583,-0.011949869804084301
1782891178991467000,5.048467041015625,-0.004224838688969612,0.025829998776316643,-0.01720615103840828
1782891179001489000,5.058489013671875,0.00015233281010296196,0.037891190499067307,-0.01961790956556797
1782891179011511000,5.068510986328125,0.0034269557800143957,0.039196938276290894,-0.022411832585930824
1782891179021533000,5.078532958984375,0.007872303947806358,0.02990996278822422,-0.021990252658724785
1782891179031554800,5.088554931640625,0.007395864464342594,0.026524551212787628,-0.015961922705173492
1782891179041577000,5.098576904296875,0.011589543893933296,0.02207680605351925,-0.0164231825619936
1782891179051599000,5.10859912109375,0.015114503912627697,0.025953304022550583,-0.0174437053501606
1782891179061622000,5.1186220703125,0.017005614936351776,0.0366661362349987,-0.022758308798074722
1782891179071644200,5.12864404296875,0.015222628600895405,0.04249845817685127,-0.030051909387111664
1782891179081666000,5.138666015625,0.013729660771787167,0.03759957477450371,-0.031039409339427948
1782891179091688000,5.14868798828125,0.01369477342814207,0.024203073233366013,-0.02462092414498329
1782891179101710000,5.1587099609375,0.019404057413339615,0.008044078014791012,-0.00774686923250556
1782891179111732000,5.16873193359375,0.017895376309752464,-0.0016674051294103265,0.0029108349699527025
1782891179121753900,5.17875390625,0.017908426001667976,-0.007475759368389845,0.008432633243501186
1782891179131776000,5.18877587890625,0.01998436078429222,-0.008958607912063599,0.013667075894773006
1782891179141798100,5.198798095703125,0.017589645460247993,-0.001442900625988841,0.01846769079566002
1782891179151820000,5.208820068359375,0.015518239699304104,0.0028474517166614532,0.023615313693881035
1782891179161842000,5.218842041015625,0.017600830644369125,0.008991630747914314,0.02563292533159256
1782891179171864000,5.228864013671875,0.018313493579626083,0.01648097299039364,0.017781926319003105
1782891179181886000,5.238885986328125,0.013394102454185486,0.02575569786131382,0.002653307281434536
1782891179191907800,5.248907958984375,0.015873504802584648,0.03007694147527218,-0.018090054392814636
1782891179201930000,5.258929931640625,0.016882311552762985,0.03175313398241997,-0.04090988263487816
1782891179211951900,5.268951904296875,0.01858886517584324,0.028505943715572357,-0.05035505071282387
1782891179221974000,5.27897412109375,0.015026353299617767,0.017661817371845245,-0.04850282147526741
1782891179231996000,5.288995849609375,0.007748999632894993,-0.0023241406306624413,-0.03718012571334839
1782891179242017800,5.299017822265625,0.009336243383586407,-0.025053421035408974,-0.004590490832924843
1782891179252040000,5.3090400390625,0.009925867430865765,-0.039394810795784,0.027222832664847374
1782891179262061800,5.319061767578125,0.010522149503231049,-0.04545057192444801,0.04795687273144722
1782891179272083700,5.329083740234375,0.002457564929500222,-0.043415915220975876,0.05668937787413597
1782891179282105900,5.33910595703125,-0.002633067313581705,-0.03123248741030693,0.04566974937915802
1782891179292128800,5.349128662109375,-0.004714594222605228,-0.01918754354119301,0.026935476809740067
1782891179302151000,5.35915087890625,-0.005803826730698347,-0.0019528960110619664,0.00640836451202631
1782891179312172800,5.3691728515625,-0.004566522315144539,0.0025537051260471344,-0.009341304190456867
1782891179322194700,5.379194580078125,0.001728657865896821,0.004782504867762327,-0.02257268689572811
1782891179332216800,5.389216796875,-0.0002359560749027878,0.011244664900004864,-0.028202876448631287
1782891179342239000,5.399239013671875,0.0019153454340994358,0.010554639622569084,-0.028248682618141174
1782891179352260900,5.4092607421875,0.0012282498646527529,0.010913367383182049,-0.016937438398599625
1782891179362282800,5.41928271484375,0.007092264015227556,0.004275438841432333,-0.012381035834550858
1782891179372305000,5.429304931640625,0.008979380130767822,-0.00039654469583183527,0.0036823528353124857
1782891179382326800,5.439326904296875,0.011653194203972816,-0.011889150366187096,0.015801599249243736
1782891179392348700,5.4493486328125,0.013668141327798367,-0.015526228584349155,0.029830332845449448
1782891179402370800,5.459370849609375,0.015443405136466026,-0.01889246515929699,0.029788788408041
1782891179412393000,5.46939306640625,0.0160673838108778,-0.013040700927376747,0.0222693532705307
1782891179422414800,5.479414794921875,0.021867481991648674,-0.009958891198039055,0.011973305605351925
1782891179432437000,5.48943701171875,0.014056163839995861,-0.013132845982909203,-0.0009030779474414885
1782891179442459000,5.499458984375,0.00487145408987999,-0.021086109802126884,-0.008242483250796795
1782891179452480800,5.509480712890625,-0.0007699198904447258,-0.024388430640101433,-0.007763114292174578
1782891179462503000,5.5195029296875,-0.0025126924738287926,-0.028063325211405754,0.002787264296784997
1782891179472524800,5.52952490234375,0.002960369922220707,-0.032526250928640366,0.01642451249063015
1782891179482546700,5.539546630859375,0.006106095854192972,-0.02628699690103531,0.026443591341376305
1782891179492569000,5.549569091796875,0.005025118589401245,-0.013881727121770382,0.03521391376852989
1782891179502591000,5.559591064453125,0.0017212009988725185,-0.0059750680811703205,0.03671859949827194
1782891179512612900,5.56961279296875,0.0002378202771069482,0.0020208065398037434,0.030218888074159622
1782891179522636000,5.579635986328125,-0.0017944378778338432,0.012945625931024551,0.009122392162680626
1782891179532658000,5.589657958984375,-0.0034109766129404306,0.027451330795884132,-0.011561847291886806
1782891179542679800,5.5996796875,0.004829110112041235,0.04825035482645035,-0.029800506308674812
1782891179552702000,5.609701904296875,0.009102950803935528,0.062433283776044846,-0.040051013231277466
1782891179562723800,5.619723876953125,0.009385245852172375,0.06739235669374466,-0.045055091381073
1782891179572745700,5.629745849609375,0.006101301871240139,0.06490869075059891,-0.0411146804690361
1782891179582767900,5.639767822265625,0.005928196478635073,0.052019525319337845,-0.030781880021095276
1782891179592790000,5.6497900390625,0.006833937484771013,0.04620584473013878,-0.022103970870375633
1782891179602812000,5.65981201171875,0.006292783189564943,0.04123026132583618,-0.018602712079882622
1782891179612833800,5.669833740234375,0.004465055651962757,0.03777853772044182,-0.010666226036846638
1782891179622856000,5.67985595703125,0.0027590349782258272,0.02804867923259735,-0.007499461527913809
1782891179632877800,5.6898779296875,-0.0011534150689840317,0.014040717855095863,-0.001630120910704136
1782891179642899700,5.699899658203125,-0.005420065484941006,0.002603772561997175,0.004430967383086681
1782891179652921900,5.709921875,-0.009072057902812958,-0.006369748618453741,0.01022494025528431
1782891179662943700,5.71994384765625,-0.010012952610850334,-0.00950801745057106,0.012546684592962265
1782891179672966000,5.7299658203125,-0.0068302094005048275,-0.012310462072491646,0.016762202605605125
1782891179682988000,5.739988037109375,-0.0007512777228839695,-0.016591226682066917,0.02118624560534954
1782891179693010000,5.750010009765625,0.0057260626927018166,-0.015279619954526424,0.029093703255057335
1782891179703031800,5.76003173828125,0.010714163072407246,-0.008990831673145294,0.03121837228536606
1782891179713054000,5.770053955078125,0.004494084510952234,-0.00045327001134864986,0.022638199850916862
1782891179723075800,5.780075927734375,0.0024618261959403753,0.012518987990915775,0.003173955250531435
1782891179733097700,5.79009765625,0.0003259709046687931,0.02304353378713131,-0.01531610544770956
1782891179743121000,5.800120849609375,0.003620833856984973,0.028001807630062103,-0.033482857048511505
1782891179753142800,5.810142822265625,-0.0020415792241692543,0.02256283350288868,-0.03532256931066513
1782891179763164700,5.82016455078125,-0.00020373181905597448,0.014140053652226925,-0.028238562867045403
1782891179773186800,5.830186767578125,-0.000031957933970261365,0.007743939757347107,-0.01401808112859726
1782891179783209000,5.840208984375,-0.005806223955005407,0.0027654264122247696,0.0033241575583815575
1782891179793230800,5.85023095703125,-0.011345865204930305,0.0010327738709747791,0.017305221408605576
1782891179803253000,5.8602529296875,-0.016517989337444305,-0.0026229473296552896,0.021871743723750114
1782891179813275000,5.87027490234375,-0.014333665370941162,-0.006310892757028341,0.023035544902086258
1782891179823296800,5.880296875,-0.015002917498350143,0.001791242160834372,0.01853267103433609
1782891179833319000,5.89031884765625,-0.01056502666324377,0.0035625104792416096,0.014405837282538414
1782891179843340800,5.9003408203125,-0.010271545499563217,0.01095464639365673,0.0073348782025277615
1782891179853362700,5.91036279296875,-0.004308728501200676,0.015449264086782932,-0.0006410228670574725
1782891179863385000,5.920385009765625,-0.00028096348978579044,0.018818961456418037,-0.007470965851098299
1782891179873407000,5.930406982421875,0.002752110594883561,0.023855797946453094,-0.013581322506070137
1782891179883428900,5.940428955078125,0.007046990562230349,0.019582755863666534,-0.02273380756378174
1782891179893450800,5.95045068359375,0.00618199585005641,0.015323828905820847,-0.02923724800348282
1782891179903473000,5.960472900390625,0.00002902845517382957,0.015858059749007225,-0.03008679673075676
1782891179913494800,5.970494873046875,-0.008481902070343494,0.011549596674740314,-0.024295486509799957
1782891179923516700,5.9805166015625,-0.008532768115401268,0.0021398498211055994,-0.005589442327618599
1782891179933538800,5.990538818359375,-0.008458998054265976,-0.005453621037304401,0.013556821271777153
1782891179943561000,6.00056103515625,-0.015086008235812187,-0.008813997730612755,0.027174362912774086
1782891179953582800,6.010582763671875,-0.01782293990254402,-0.010511230677366257,0.035596344619989395
1782891179963605000,6.02060498046875,-0.02154843509197235,-0.009622533805668354,0.026935476809740067
1782891179973628000,6.0306279296875,-0.022912239655852318,-0.009946374222636223,0.014888402074575424
1782891179983650000,6.040650146484375,-0.019516177475452423,-0.004667189903557301,0.011670504696667194
1782891179993672000,6.050671875,-0.016835704445838928,-0.006355101242661476,0.007077882997691631
1782891180003693800,6.06069384765625,-0.014348845928907394,-0.007733287289738655,0.005216333549469709
1782891180013715700,6.0707158203125,-0.011094463057816029,-0.008927182294428349,0.010604174807667732
1782891180023737900,6.08073779296875,-0.010999388061463833,-0.008345814421772957,0.007880826480686665
1782891180033759700,6.090759765625,-0.010174340568482876,-0.0028602350503206253,0.0011251855175942183
1782891180043781600,6.10078173828125,-0.0051686628721654415,-0.004012584686279297,0.0031822111923247576
1782891180053804000,6.110803955078125,0.0007297061383724213,0.003225354477763176,0.011569837108254433
1782891180063826000,6.120825927734375,0.0007898935582488775,0.0064927865751087666,0.01854119449853897
1782891180073847800,6.130847900390625,0.0023371900897473097,0.011962120421230793,0.014359764754772186
1782891180083870000,6.140869873046875,-0.0011121360585093498,0.01630733348429203,0.0035950010642409325
1782891180093891800,6.150891845703125,0.0015076154377311468,0.02214604802429676,-0.0019265307346358895
1782891180103913700,6.160913818359375,-0.0015110776294022799,0.0200959462672472,-0.009707221761345863
1782891180113936000,6.170935791015625,-0.0021084246691316366,0.015473764389753342,-0.01266892347484827
1782891180123957800,6.180957763671875,-0.007899468764662743,0.014209029264748096,-0.007325290702283382
1782891180133980000,6.19097998046875,-0.005338838789612055,0.00974557176232338,0.002633600030094385
1782891180144002000,6.201001953125,-0.007616906892508268,0.005007275380194187,0.010305901058018208
1782891180154024000,6.21102392578125,-0.006798251066356897,0.004494084510952234,0.013568539172410965
1782891180164045800,6.2210458984375,-0.004942560568451881,0.010982343927025795,0.009019593708217144
1782891180174068000,6.23106787109375,-0.0037356161046773195,0.01637338101863861,0.000993625377304852
1782891180184089900,6.24108984375,-0.000901480030734092,0.010241718962788582,-0.000627973407972604
1782891180194111700,6.25111181640625,-0.002240783767774701,0.006997189484536648,-0.0034671693574637175
1782891180204135000,6.261135009765625,-0.005823534447699785,0.0012998889433220029,0.008025968447327614
1782891180214156800,6.27115673828125,-0.004530036821961403,-0.0031310785561800003,0.013964817859232426
1782891180224178700,6.2811787109375,-0.00449994346126914,-0.000287088769255206,0.026186862960457802
1782891180234200800,6.291200927734375,-0.0018367822049185634,0.003975034225732088,0.026019616052508354
1782891180244223000,6.301222900390625,-0.004041080828756094,0.002161954063922167,0.019049324095249176
1782891180254244900,6.311244873046875,-0.003834951901808381,0.0035420041531324387,0.012709669768810272
1782891180264267000,6.32126708984375,-0.0033968619536608458,0.007112238090485334,0.00860121101140976
1782891180274289000,6.331288818359375,-0.0006583334179595113,0.00760998297482729,0.007516239304095507
1782891180284310800,6.341310791015625,-0.0039047268219292164,0.011242534033954144,0.005399559158831835
1782891180294332700,6.351332763671875,-0.006243781186640263,0.01507269311696291,0.0019150790758430958
1782891180304354800,6.361354736328125,-0.009934922680258751,0.020079968497157097,-0.0026341325137764215
1782891180314376700,6.371376708984375,-0.01233389787375927,0.023965787142515182,-0.009943177923560143
1782891180324398800,6.38139892578125,-0.014970960095524788,0.022944996133446693,-0.008561263792216778
1782891180334421000,6.3914208984375,-0.014280402101576328,0.022243786603212357,-0.00032144354190677404
1782891180344443000,6.40144287109375,-0.013948839157819748,0.02076892741024494,0.004460262134671211
1782891180354464800,6.41146484375,-0.021035244688391685,0.025431856513023376,0.006417419295758009
1782891180364487000,6.42148681640625,-0.018931878730654716,0.027212446555495262,0.0054698665626347065
1782891180374508800,6.4315087890625,-0.02226429246366024,0.02491866610944271,0.0035121769178658724
1782891180384530700,6.44153076171875,-0.026191124692559242,0.018569422885775566,-0.0025515747256577015
1782891180394552800,6.451552734375,-0.024960210546851158,0.014163223095238209,-0.00564004248008132
1782891180404575000,6.461574951171875,-0.02587926760315895,0.016436496749520302,-0.0016351809026673436
1782891180414596900,6.471596923828125,-0.027893949300050735,0.01576751098036766,-0.0015270565636456013
1782891180424619000,6.481618896484375,-0.031065773218870163,0.02310558594763279,-0.010102967731654644
1782891180434642000,6.491641845703125,-0.02793016843497753,0.03580726683139801,-0.019119365140795708
1782891180444663800,6.501663818359375,-0.024344487115740776,0.04290405660867691,-0.039152730256319046
1782891180454686000,6.51168603515625,-0.016956346109509468,0.04608600214123726,-0.0638442263007164
1782891180464707800,6.521707763671875,-0.014975753612816334,0.060269732028245926,-0.07856538146734238
1782891180474729700,6.531729736328125,-0.0116188395768404,0.07673392444849014,-0.08741586655378342
1782891180484752000,6.541751953125,-0.003668237943202257,0.08309728652238846,-0.08562649041414261
1782891180494773800,6.551773681640625,-0.0006018743733875453,0.0895591750741005,-0.07432109862565994
1782891180504796000,6.5617958984375,0.0015076154377311468,0.07856591790914536,-0.06034882739186287
1782891180514818000,6.571818115234375,-0.005988384131342173,0.06447672843933105,-0.039625175297260284
1782891180524840000,6.58183984375,-0.005991845857352018,0.05847635865211487,-0.015128086321055889
1782891180534861800,6.59186181640625,-0.009705091826617718,0.05224136635661125,0.004555869847536087
1782891180544884000,6.601884033203125,-0.00923531036823988,0.0423613041639328,0.020969197154045105
1782891180554905900,6.61190576171875,-0.007797469384968281,0.029950708150863647,0.026164226233959198
1782891180564927700,6.621927734375,-0.005542837083339691,0.019540678709745407,0.023019032552838326
1782891180574949600,6.63194970703125,-0.007514108903706074,0.01242098305374384,0.016265256330370903
1782891180584972000,6.641971923828125,-0.009455020539462566,0.008272044360637665,0.0019124159589409828
1782891180594994000,6.651993896484375,-0.013748036697506905,0.006340187508612871,-0.009561813436448574
1782891180605015800,6.662015869140625,-0.016222113743424416,-0.003736148588359356,-0.0170250553637743
1782891180615038000,6.672037841796875,-0.01895584724843502,-0.0075964005663990974,-0.018220283091068268
1782891180625059800,6.682059814453125,-0.018727349117398262,-0.013496899977326393,-0.0031316110398620367
1782891180635081700,6.692081787109375,-0.019465310499072075,-0.023137276992201805,0.012251872569322586
1782891180645103900,6.702103759765625,-0.016834108158946037,-0.025479527190327644,0.02448536828160286
1782891180655125800,6.712125732421875,-0.015362444333732128,-0.025468075647950172,0.03701048344373703
1782891180665149000,6.72214892578125,-0.01595446467399597,-0.02371544949710369,0.03856656700372696
1782891180675170800,6.7321708984375,-0.015777630731463432,-0.01744530349969864,0.03548768535256386
1782891180685192700,6.742192626953125,-0.016217052936553955,-0.004786499310284853,0.02299053780734539
1782891180695214800,6.75221484375,-0.010378072038292885,0.007790278643369675,-0.0011310444679111242
1782891180705237000,6.762237060546875,-0.007090133614838123,0.019710853695869446,-0.017970744520425797
1782891180715259000,6.7722587890625,-0.005529787857085466,0.02196655236184597,-0.02875681407749653
1782891180725280800,6.78228076171875,-0.009453422389924526,0.020053070038557053,-0.028008731082081795
1782891180735303000,6.792302978515625,-0.01267211977392435,0.021320467814803123,-0.024341026321053505
1782891180745324800,6.80232470703125,-0.010692858137190342,0.01846369542181492,-0.01956517994403839
1782891180755346700,6.8123466796875,-0.008347145281732082,0.016026370227336884,-0.010804710909724236
1782891180765368800,6.822368896484375,-0.004346545320004225,0.012324310839176178,-0.008346347138285637
1782891180775391000,6.832390869140625,-0.0012271846644580364,0.008577775210142136,-0.008053665049374104
1782891180785412900,6.842412841796875,0.0012956279097124934,-0.004793690051883459,-0.008070975542068481
1782891180795435000,6.85243505859375,0.0027052389923483133,-0.02220943197607994,-0.0010631339391693473
1782891180805457000,6.862456787109375,0.0054429685696959496,-0.026200711727142334,0.005687713157385588
1782891180815478800,6.872478759765625,0.008459530770778656,-0.03527703136205673,0.009612679481506348
1782891180825501000,6.8825009765625,0.013265738263726234,-0.036989178508520126,0.008144212886691093
1782891180835522800,6.892522705078125,0.01872335374355316,-0.03937004134058952,0.009836385026574135
1782891180845544700,6.902544677734375,0.027100592851638794,-0.043408725410699844,0.01215706393122673
1782891180855566800,6.91256689453125,0.033904436975717545,-0.05586033686995506,0.01429212000221014
1782891180865589000,6.922589111328125,0.042762111872434616,-0.05535486713051796,0.015126754529774189
1782891180875611000,6.93261083984375,0.050887949764728546,-0.039688557386398315,0.01768631860613823
1782891180885632800,6.9426328125,0.04920669272542,-0.036315396428108215,0.04116048663854599
1782891180895656000,6.952656005859375,0.023959394544363022,-0.016115853562951088,0.05367681011557579
1782891180905677800,6.962677734375,-0.022182533517479897,0.1049349382519722,0.08373431116342545
1782891180915700000,6.972699951171875,0.0029739518649876118,0.0524112768471241,0.04206036776304245
1782891180925721900,6.982721923828125,0.014938735403120518,0.011520568281412125,0.01734010875225067
1782891180935743700,6.99274365234375,0.015909457579255104,0.027702201157808304,0.044919539242982864
1782891180945766000,7.002765869140625,0.0246126689016819,0.004815794061869383,0.09039407968521118
1782891180955787800,7.012787841796875,0.052208077162504196,-0.023431822657585144,0.09827437251806259
1782891180965810000,7.022809814453125,0.11030759662389755,-0.026491262018680573,0.05167011916637421
1782891180975831800,7.032831787109375,0.11102452129125595,0.05515912547707558,0.0059785302728414536
1782891180985854000,7.04285400390625,0.09130647778511047,0.143625870347023,-0.054613709449768066
1782891180995875800,7.052875732421875,0.07305210828781128,0.20206494629383087,-0.10461349785327911
1782891181005897700,7.062897705078125,0.051538292318582535,0.24561642110347748,-0.11119363456964493
1782891181015919900,7.072919921875,0.044068124145269394,0.27868834137916565,-0.06905683130025864
1782891181025941800,7.082941650390625,0.05483395233750343,0.282657265663147,-0.02804521657526493
1782891181035963600,7.092963623046875,0.06069876626133919,0.27328425645828247,-0.02665291540324688
1782891181045986000,7.102986083984375,0.039562322199344635,0.20628713071346283,-0.0448276586830616
1782891181056008000,7.113008056640625,0.030650854110717773,0.16942444443702698,-0.0403897687792778
1782891181066029800,7.12302978515625,0.05147064849734306,0.1552726775407791,-0.0489363819360733
1782891181076052000,7.133052001953125,0.07899335026741028,0.15000787377357483,-0.06555131077766418
1782891181086073900,7.143073974609375,0.07115140557289124,0.15530329942703247,-0.09059222042560577
1782891181096095700,7.153095703125,0.056888848543167114,0.17239972949028015,-0.10657650977373123
1782891181106118000,7.163117919921875,0.01960832253098488,0.16939274966716766,-0.12388652563095093
1782891181116140800,7.173140869140625,-0.039566051214933395,0.12069925665855408,-0.1484222263097763
1782891181126162700,7.18316259765625,-0.11476653069257736,0.08174865692853928,-0.13095135986804962
1782891181136184800,7.193184814453125,-0.16267652809619904,0.018923623487353325,-0.0607573576271534
1782891181146207000,7.20320703125,-0.17105776071548462,-0.022758575156331062,0.0658746212720871
1782891181156228900,7.213228759765625,-0.13304007053375244,-0.05646087974309921,0.2093508243560791
1782891181166251000,7.2232509765625,-0.1023854911327362,-0.09763388335704803,0.3193473815917969
1782891181176273000,7.23327294921875,-0.10652324557304382,-0.16011111438274384,0.36353665590286255
1782891181186294800,7.243294677734375,-0.13650457561016083,-0.1921635866165161,0.3758455216884613
1782891181196317000,7.25331689453125,-0.1549283266067505,-0.1993679702281952,0.3724319040775299
1782891181206338800,7.2633388671875,-0.15012584626674652,-0.19016994535923004,0.3525572419166565
1782891181216360700,7.273360595703125,-0.12567004561424255,-0.15823011100292206,0.3138825595378876
1782891181226382800,7.2833828125,-0.08805156499147415,-0.12586233019828796,0.23795238137245178
1782891181236405200,7.2934052734375,-0.07430592179298401,-0.09847943484783173,0.14618544280529022
1782891181246427600,7.303427734375,-0.0493590272963047,-0.06411001086235046,0.07015938311815262
1782891181256449500,7.313449462890625,-0.01919926144182682,-0.013492106460034847,0.009219597093760967
1782891181266471400,7.323471435546875,0.010086189955472946,0.006849383935332298,-0.038852591067552567
1782891181276493600,7.33349365234375,0.028788238763809204,0.011259579099714756,-0.07342121750116348
1782891181286515500,7.343515380859375,0.039986032992601395,0.012308597564697266,-0.09483516216278076
1782891181296537300,7.353537353515625,0.035226963460445404,0.006907440721988678,-0.10801967978477478
1782891181306559500,7.3635595703125,0.02082671783864498,0.018607772886753082,-0.10084672272205353
1782891181316581400,7.373581298828125,0.0070792147889733315,0.049974750727415085,-0.05423634126782417
1782891181326603500,7.383603515625,-0.0025798040442168713,0.0421767495572567,-0.0004820321628358215
1782891181336625700,7.393625732421875,-0.00012010856153210625,0.028534172102808952,0.04843304678797722
1782891181346648600,7.403648681640625,0.005508482456207275,0.0136652123183012,0.07198897004127502
1782891181356670500,7.41367041015625,0.0056802560575306416,0.004716191906481981,0.0688866525888443
1782891181366692600,7.423692626953125,0.0018570221727713943,-0.013715279288589954,0.04858165234327316
1782891181376714500,7.433714599609375,-0.0006199838826432824,-0.02377830073237419,0.02165576070547104
1782891181386736400,7.443736328125,-0.0014199974248185754,-0.03628610074520111,0.0068331388756632805
1782891181396758500,7.453758544921875,0.005434446502476931,-0.04261936619877815,-0.0014261227333918214
1782891181406780400,7.463780517578125,-0.000046871635277057067,-0.048412006348371506,-0.0024881914723664522
1782891181416802300,7.47380224609375,0.001207477180287242,-0.048721734434366226,0.005499427672475576
1782891181426824400,7.483824462890625,0.0035989959724247456,-0.04586309567093849,0.01390010304749012
1782891181436846600,7.4938466796875,0.007991347461938858,-0.03500485420227051,0.003649862250313163
1782891181446868500,7.503868408203125,-0.011228419840335846,-0.008520517498254776,-0.01846982166171074
1782891181456890600,7.513890625,-0.0354999378323555,-0.007104248274117708,-0.03278084844350815
1782891181466912500,7.52391259765625,-0.04418050870299339,-0.01531717088073492,-0.02925269305706024
1782891181476934400,7.533934326171875,-0.032833848148584366,-0.010209227912127972,-0.015568040311336517
1782891181486956500,7.54395654296875,-0.023196399211883545,-0.02027571015059948,-0.0087205208837986
1782891181496978400,7.553978515625,-0.02474236488342285,-0.026146648451685905,-0.009737848304212093
1782891181507000300,7.564000244140625,-0.02328295260667801,-0.02978266216814518,-0.01549373846501112
1782891181517022500,7.5740224609375,-0.025125592947006226,-0.021265074610710144,-0.03166471794247627
1782891181527044600,7.584044677734375,-0.027210049331188202,-0.004373443312942982,-0.04211709275841713
1782891181537066500,7.59406640625,-0.016870060935616493,0.00999191403388977,-0.031502798199653625
1782891181547088400,7.60408837890625,0.0022306637838482857,0.017430122941732407,-0.01991538517177105
1782891181557110500,7.614110595703125,0.0076211681589484215,0.020727915689349174,-0.0131509555503726
1782891181567132400,7.62413232421875,-0.0023299995809793472,0.015252988785505295,-0.0252212006598711
1782891181577154300,7.634154296875,-0.009066731669008732,0.014579474925994873,-0.03434652090072632
1782891181587177500,7.644177490234375,-0.008194014430046082,0.01836143061518669,-0.037936463952064514
1782891181597199400,7.654199462890625,0.009048888459801674,0.015867913141846657,-0.04123798385262489
1782891181607221200,7.66422119140625,0.02539936639368534,0.006848318502306938,-0.05385444313287735
1782891181617243600,7.67424365234375,0.03285355493426323,0.0010583401890471578,-0.06730527430772781
1782891181627265500,7.684265625,0.03652258962392807,-0.002275404753163457,-0.07723832875490189
1782891181637287400,7.694287353515625,0.027459854260087013,0.0013704627053812146,-0.07238232344388962
1782891181647309600,7.7043095703125,0.0167347714304924,-0.011775433085858822,-0.04964664950966835
1782891181657331500,7.71433154296875,0.013504090718925,-0.017484450712800026,-0.00404480891302228
1782891181667353300,7.724353271484375,0.017374197021126747,-0.02893844060599804,0.05272180214524269
1782891181677375500,7.73437548828125,0.011237474158406258,-0.040529850870370865,0.08242350071668625
1782891181687397400,7.7443974609375,0.0025244103744626045,-0.03966698423027992,0.08605525642633438
1782891181697419500,7.75441943359375,-0.003063700394704938,-0.03690129145979881,0.07695736736059189
1782891181707441700,7.764441650390625,0.0019973707385361195,-0.03138961270451546,0.0656714215874672
1782891181717463600,7.774463623046875,0.00896819494664669,-0.017374463379383087,0.04833024740219116
1782891181727485400,7.7844853515625,0.007851798087358475,-0.01278583612293005,0.030051110312342644
1782891181737507600,7.794507568359375,0.011198858730494976,-0.011212707497179508,0.012703011743724346
1782891181747529500,7.804529541015625,0.015076154842972755,-0.009000418707728386,-0.00920202024281025
1782891181757551400,7.81455126953125,0.018764633685350418,0.008490690030157566,-0.027127224951982498
1782891181767573500,7.824573486328125,0.017616810277104378,0.02521161362528801,-0.039569780230522156
1782891181777595600,7.834595703125,0.020966799929738045,0.032221585512161255,-0.045710496604442596
1782891181787617500,7.844617431640625,0.028856415301561356,0.03522003814578056,-0.036674123257398605
1782891181797639400,7.854639404296875,0.02870328351855278,0.029090240597724915,-0.021869879215955734
1782891181807661600,7.86466162109375,0.026144519448280334,0.019160112366080284,-0.0023427826818078756
1782891181817684500,7.8746845703125,0.018851185217499733,0.011837217956781387,0.01323990523815155
1782891181827706600,7.88470654296875,0.010451842099428177,0.008986038155853748,0.023931698873639107
1782891181837728500,7.894728515625,0.00977486651390791,0.007836084812879562,0.02948332391679287
1782891181847750400,7.90475048828125,0.008251804858446121,0.007722367998212576,0.01798059791326523
1782891181857772500,7.9147724609375,0.013961088843643665,0.00839881133288145,0.007406783755868673
1782891181867794400,7.92479443359375,0.016291622072458267,0.007955394685268402,-0.0009544769418425858
1782891181877816300,7.93481640625,0.014198376797139645,0.008317052386701107,0.0021960425656288862
1782891181887838500,7.94483837890625,0.010706706903874874,0.003608316881582141,0.008108792826533318
1782891181897860600,7.954860595703125,0.009606554172933102,0.0024671524297446012,0.00954024214297533
1782891181907882500,7.964882568359375,0.008422513492405415,0.005287706386297941,0.001740642124786973
1782891181917902600,7.974902587890625,0.0026075011119246483,0.012855078093707561,-0.008315986953675747
1782891181927925500,7.984925537109375,-0.006018743850290775,0.014023407362401485,-0.0083673857152462
1782891181937947400,7.994947509765625,-0.02165709249675274,0.011172226630151272,0.004299940075725317
1782891181947969500,8.004969482421876,-0.030051643028855324,-0.004290885291993618,0.02353781647980213
1782891181957991400,8.014991455078125,-0.022847259417176247,-0.009369533509016037,0.04687349870800972
1782891181968013600,8.025013671875,-0.015115569345653057,0.0032498554792255163,0.05426963046193123
1782891181978035500,8.035035400390624,-0.015383217483758926,0.013423663564026356,0.04356132447719574
1782891181988057300,8.045057373046875,-0.013381585478782654,0.011916314251720905,0.027281422168016434
1782891181998079500,8.05507958984375,-0.006928746122866869,0.013610084541141987,0.007354319095611572
1782891182008101400,8.065101318359375,-0.0023012375459074974,0.02834189310669899,-0.021872540935873985
1782891182018123300,8.075123291015625,-0.0009824400767683983,0.056051816791296005,-0.04583779722452164
1782891182028145700,8.085145751953124,-0.00440939562395215,0.0747661143541336,-0.05965321138501167
1782891182038167600,8.09516748046875,0.002382996492087841,0.07446277886629105,-0.06276378035545349
1782891182048189400,8.105189453125,0.0065348646603524685,0.06006094068288803,-0.05983323976397514
1782891182058211600,8.115211669921875,0.011567439883947372,0.04513125866651535,-0.059354402124881744
1782891182068233500,8.1252333984375,0.007758320774883032,0.030008764937520027,-0.054912250488996506
1782891182078255400,8.13525537109375,0.0015193333383649588,0.024394022300839424,-0.045035652816295624
1782891182088277500,8.145277587890625,-0.000550475378986448,0.02009381726384163,-0.03307752683758736
1782891182098299400,8.15529931640625,-0.00953891035169363,0.009193232282996178,-0.01798432692885399
1782891182108321500,8.165321533203125,-0.0065681543201208115,-0.0023305322974920273,0.0031252196058630943
1782891182118343700,8.17534375,-0.007226487621665001,-0.013961887918412685,0.023030484095215797
1782891182128365600,8.185365478515624,-0.0011914982460439205,-0.02924949862062931,0.0319957509636879
1782891182138387500,8.195387451171875,-0.002189651131629944,-0.04035700857639313,0.03139440715312958
1782891182148409300,8.205409423828126,-0.004018709994852543,-0.025603363290429115,0.02647421695291996
1782891182158431500,8.215431396484375,0.00660650385543704,-0.0065535069443285465,0.020364660769701004
1782891182168454400,8.225454345703126,0.011766111478209496,0.012178635224699974,0.008703210391104221
1782891182178476500,8.2354765625,0.01666792668402195,0.019821908324956894,-0.014086790382862091
1782891182188498400,8.24549853515625,0.01781388372182846,0.025359418243169785,-0.03769171983003616
1782891182198520300,8.255520263671874,0.02365526184439659,0.027636155486106873,-0.052136968821287155
1782891182208542500,8.26554248046875,0.025494707748293877,0.035824310034513474,-0.059465192258358
1782891182218564600,8.275564697265626,0.029772542417049408,0.02869715914130211,-0.057075269520282745
1782891182228586500,8.28558642578125,0.03032168745994568,0.02106400579214096,-0.05728699266910553
1782891182238607600,8.295607666015625,0.027824440971016884,0.01483620423823595,-0.03997111693024635
1782891182248629800,8.305629638671874,0.02293434366583824,0.0018735338235273957,-0.02081233821809292
1782891182258651600,8.315651611328125,0.015383750200271606,-0.006558566819876432,0.00020399813365656883
1782891182268673500,8.325673583984376,0.00021278657368384302,-0.011141601018607616,0.02412637509405613
1782891182278696000,8.335696044921875,-0.009729326702654362,-0.02177533693611622,0.04765380546450615
1782891182288717800,8.3457177734375,-0.012909406796097755,-0.027759458869695663,0.061583470553159714
1782891182298739700,8.35573974609375,-0.009857690893113613,-0.03142476826906204,0.07126299291849136
1782891182308761900,8.365761962890625,-0.006974020041525364,-0.029219670221209526,0.056236907839775085
1782891182318783700,8.37578369140625,-0.006770820822566748,-0.0210695993155241,0.03435584157705307
1782891182328805600,8.3858056640625,-0.0015744607662782073,-0.003946272190660238,0.00580755528062582
1782891182338827800,8.395827880859375,0.0008058725506998599,0.01883627101778984,-0.017018930986523628
1782891182348849700,8.405849609375,0.0032650355715304613,0.029955768957734108,-0.02702442742884159
1782891182358871800,8.415871826171875,-0.003442401997745037,0.030826622620224953,-0.02364247851073742
1782891182368893700,8.425893798828126,-0.01643143780529499,0.023865917697548866,-0.014225541613996029
1782891182378915800,8.435915771484375,-0.019054651260375977,0.018193384632468224,0.0017030915478244424
1782891182388937700,8.445937744140625,-0.013659087009727955,0.017582455649971962,0.012565593235194683
1782891182398961000,8.4559609375,-0.011540009640157223,0.024539964273571968,0.0167387668043375
1782891182408982800,8.465982666015625,-0.013044695369899273,0.028912873938679695,0.015920909121632576
1782891182419004700,8.476004638671874,-0.009747968055307865,0.021252823993563652,0.007676561828702688
1782891182429026800,8.48602685546875,-0.008302937261760235,0.022783342748880386,0.0003406183095648885
1782891182439048700,8.496048583984376,-0.01035383716225624,0.022820360958576202,-0.01366148330271244
1782891182449070600,8.506070556640625,-0.009455553255975246,0.0222666896879673,-0.019356919452548027
1782891182459092700,8.5160927734375,-0.0073045180179178715,0.01931430958211422,-0.012856676243245602
1782891182469115000,8.526114990234374,-0.01617737114429474,0.03244449198246002,-0.017550231888890266
1782891182479136800,8.53613671875,-0.017604826018214226,0.05850032716989517,-0.025070199742913246
1782891182489158700,8.54615869140625,-0.017848771065473557,0.07540527731180191,-0.027717381715774536
1782891182499180800,8.556180908203125,-0.01320954505354166,0.06885682791471481,-0.012140552513301373
1782891182509202700,8.56620263671875,-0.012852948158979416,0.05469173938035965,0.004433097783476114
1782891182519224600,8.576224609375,-0.012525378726422787,0.04364148527383804,0.017238108441233635
1782891182529246700,8.586246826171875,-0.022531142458319664,0.028111262246966362,0.02484329789876938
1782891182539268600,8.5962685546875,-0.03121837228536606,0.01461782492697239,0.028299814090132713
1782891182549290800,8.606290771484375,-0.021942317485809326,0.008696818724274635,0.037104759365320206
1782891182559313000,8.61631298828125,-0.015019962564110756,0.011067031882703304,0.03435850515961647
1782891182569334800,8.626334716796874,-0.01943335309624672,0.01486683078110218,0.01853533461689949
1782891182579356700,8.636356689453125,-0.011998872272670269,0.023934360593557358,0.01407533884048462
1782891182589378800,8.64637890625,-0.00663366774097085,0.03627784550189972,0.0065252771601080894
1782891182599400700,8.656400634765625,-0.004400340840220451,0.045393846929073334,0.006363356951624155
1782891182609422600,8.666422607421875,-0.0004777711001224816,0.04516907408833504,-0.0038626487366855145
1782891182619445800,8.67644580078125,0.006454969756305218,0.040586043149232864,-0.008235027082264423
1782891182629467600,8.686467529296875,0.012806875631213188,0.04376239329576492,-0.02064082957804203
1782891182639489500,8.696489501953126,0.015209578908979893,0.04663088545203209,-0.02641243301331997
1782891182649512000,8.706511962890625,0.014524081721901894,0.04748016595840454,-0.03123275376856327
1782891182659533800,8.716533935546876,0.014335529878735542,0.0414731428027153,-0.032757148146629333
1782891182669555700,8.7265556640625,0.0027137610595673323,0.03815191239118576,-0.01458773110061884
1782891182679577900,8.736577880859375,0.001076715998351574,0.019109511747956276,0.014707573689520359
1782891182689599700,8.746599853515624,0.00040746363811194897,-0.010147709399461746,0.03562963381409645
1782891182699621600,8.75662158203125,0.005468002520501614,-0.030223682522773743,0.0445253886282444
1782891182709643800,8.766643798828126,0.015123026445508003,-0.05031882971525192,0.038118891417980194
1782891182719665700,8.776665771484375,0.02251596190035343,-0.04571875184774399,0.021212877705693245
1782891182729687800,8.786687744140625,0.020977986976504326,-0.03707306459546089,-0.0036037894897162914
1782891182739709700,8.796709716796874,0.018674351274967194,-0.022580409422516823,-0.02269306220114231
1782891182749731800,8.80673193359375,0.01595153659582138,-0.013072391971945763,-0.03736734390258789
1782891182759753700,8.816753662109376,0.017177654430270195,-0.0015715312911197543,-0.02857145667076111
1782891182769775600,8.826775634765625,0.012011122889816761,0.011256649158895016,-0.012627111747860909
1782891182779797800,8.8367978515625,0.007478688843548298,0.02400493435561657,0.003135872073471546
1782891182789819600,8.846819580078124,0.005313805304467678,0.0436398871243,0.014061223715543747
1782891182799841500,8.856841552734375,-0.0034045851789414883,0.055994827300310135,0.020503411069512367
1782891182809863700,8.86686376953125,-0.0019030949333682656,0.0624612458050251,0.019575033336877823
1782891182819885800,8.8768857421875,0.0009534116834402084,0.06695426255464554,0.006944192573428154
1782891182829907700,8.88690771484375,0.002433330286294222,0.07338366657495499,-0.006686398293823004
1782891182839929900,8.896929931640624,0.0035052525345236063,0.0667601227760315,-0.020388895645737648
1782891182849951700,8.90695166015625,0.002852511825039983,0.05131831392645836,-0.030791202560067177
1782891182859974700,8.916974609375,0.003388339886441827,0.032046880573034286,-0.036368392407894135
1782891182869996800,8.926996826171875,0.0013523531379178166,0.012597017921507359,-0.041498441249132156
1782891182880018700,8.937018798828126,0.0011672634864225984,-0.00589517317712307,-0.03154807165265083
1782891182890040600,8.94704052734375,0.000966727442573756,-0.011445201002061367,-0.006524478085339069
1782891182900062700,8.957062744140625,-0.0010218549286946654,-0.020777450874447823,0.017942780628800392
1782891182910084600,8.967084716796874,-0.004966529086232185,-0.02949344366788864,0.029679065570235252
1782891182920106800,8.977106689453125,-0.005344964098185301,-0.02684652805328369,0.03525439277291298
1782891182930129000,8.98712890625,-0.006711964961141348,-0.015074290335178375,0.032754216343164444
1782891182940150800,8.99715087890625,-0.006766825914382935,-0.013619671575725079,0.03061996027827263
1782891182950172700,9.007172607421875,-0.01641678996384144,-0.00871998816728592,0.02623506635427475
1782891182960194800,9.01719482421875,-0.015904664993286133,-0.011597533710300922,0.022892000153660774
1782891182970216700,9.027216796875,-0.01955266296863556,-0.017783524468541145,0.0183491799980402
1782891182980238600,9.037238525390626,-0.013764548115432262,-0.022463763132691383,0.01537709217518568
1782891182990260700,9.0472607421875,-0.009941846132278442,-0.01679043099284172,0.0020564929582178593
1782891183000283000,9.057282958984375,-0.004477039910852909,-0.009998572058975697,-0.006626743823289871
1782891183010304800,9.0673046875,-0.0022799321450293064,-0.016579508781433105,0.001281779375858605
1782891183020326700,9.07732666015625,0.000943025341257453,-0.02809341996908188,0.00777722941711545
1782891183030348800,9.087348876953126,-0.0017606157343834639,-0.034018419682979584,0.02008715830743313
1782891183040370700,9.09737060546875,-0.0007193197961896658,-0.041481129825115204,0.02889423258602619
1782891183050392600,9.107392578125,-0.0033483924344182014,-0.03874579817056656,0.026760241016745567
1782891183060414700,9.117414794921874,-0.009559416212141514,-0.029819680377840996,0.021831262856721878
1782891183070436600,9.1274365234375,-0.009279252029955387,-0.02159610576927662,0.01335761696100235
1782891183080458800,9.137458740234376,-0.005012867972254753,-0.010975153185427189,0.009970076382160187
1782891183090481700,9.147481689453125,-0.0057255299761891365,-0.02082911506295204,0.0034914042335003614
1782891183100503800,9.15750390625,0.004549211822450161,-0.030119553208351135,-0.006166283041238785
1782891183110526000,9.16752587890625,0.005642439238727093,-0.025842249393463135,-0.015291337855160236
1782891183120547800,9.1775478515625,-0.00013928332191426307,-0.01649348996579647,-0.017947841435670853
1782891183130569700,9.18756982421875,-0.00624138442799449,-0.013049222528934479,0.001097755040973425
1782891183140591600,9.197591552734375,-0.0075604477897286415,-0.021139906719326973,0.026260899379849434
1782891183150613800,9.20761376953125,-0.010792460292577744,-0.02695704810321331,0.041201766580343246
1782891183160635600,9.2176357421875,-0.017612548545002937,-0.025720810517668724,0.05018700286746025
1782891183170657500,9.227657470703125,-0.02267521806061268,-0.02105228789150715,0.0420403927564621
1782891183180679700,9.2376796875,-0.023849673569202423,-0.006612895056605339,0.02569284662604332
1782891183190701800,9.247701904296875,-0.02425047755241394,0.012413259595632553,0.007244064472615719
1782891183200723700,9.2577236328125,-0.019542807713150978,0.02857438661158085,-0.0037587855476886034
1782891183210745900,9.267745849609375,-0.02311011217534542,0.032756347209215164,-0.019095130264759064
1782891183220767700,9.277767822265625,-0.027829499915242195,0.028724055737257004,-0.026816166937351227
1782891183230789600,9.28778955078125,-0.02569684199988842,0.02147919312119484,-0.01515951193869114
1782891183240812500,9.2978125,-0.019054384902119637,0.010045177303254604,0.010724283754825592
1782891183250834700,9.307834716796876,-0.012500878423452377,-0.0022828616201877594,0.029569344595074654
1782891183260856600,9.317856689453125,-0.013319799676537514,-0.000838895735796541,0.02172873169183731
1782891183270878500,9.32787841796875,-0.008772985078394413,0.009889914654195309,0.007507450878620148
1782891183280900600,9.337900634765624,-0.0005888249143026769,0.021624069660902023,-0.0151986600831151
1782891183290922800,9.3479228515625,0.006853645201772451,0.022592926397919655,-0.023815317079424858
1782891183300944600,9.357944580078126,0.011100854724645615,0.01870577782392502,-0.024474715813994408
1782891183310967800,9.3679677734375,0.013497166335582733,0.013485182076692581,-0.027542412281036377
1782891183320989700,9.37798974609375,0.02195536531507969,0.010807906277477741,-0.021144965663552284
1782891183331011600,9.388011474609375,0.02455780655145645,0.0014258564915508032,-0.009853430092334747
1782891183341033700,9.39803369140625,0.03341201692819595,-0.012477708980441093,-0.006566023454070091
1782891183351055600,9.4080556640625,0.03154061734676361,-0.02376125566661358,0.0011856392957270145
1782891183361077500,9.418077392578125,0.030728884041309357,-0.023730896413326263,0.014795191586017609
1782891183371099600,9.428099609375,0.028180770576000214,-0.021450430154800415,0.014594122767448425
1782891183381121500,9.43812158203125,0.01788126304745674,-0.023313844576478004,0.012145878747105598
1782891183391143700,9.448143798828125,0.017367538064718246,-0.01679442636668682,0.008282165043056011
1782891183401165800,9.458165771484374,-0.00045060686534270644,-0.016934508457779884,0.01739710010588169
1782891183411187700,9.468187744140625,-0.0145874647423625,-0.026741066947579384,0.02780499868094921
1782891183421209600,9.478209716796876,-0.02189757488667965,-0.040163666009902954,0.040954358875751495
1782891183431231500,9.4882314453125,-0.018453575670719147,-0.04833477735519409,0.04951348900794983
1782891183441253600,9.498253662109375,-0.010686466470360756,-0.05392980948090553,0.0441908985376358
1782891183451275500,9.508275634765624,-0.0027121631428599358,-0.03654735907912254,0.026262231171131134
1782891183461297400,9.51829736328125,0.0031787490006536245,-0.00833809096366167,0.0009289105655625463
1782891183471319600,9.528319580078126,0.0054421694949269295,0.018063422292470932,-0.018515361472964287
1782891183481341700,9.538341796875,-0.00012117382721044123,0.030248450115323067,-0.028990905731916428
1782891183491363600,9.548363525390625,-0.0006657902849838138,0.03958788886666298,-0.024993766099214554
1782891183501385700,9.5583857421875,-0.0010285128373652697,0.03489832952618599,-0.01679602451622486
1782891183511407600,9.56840771484375,-0.001555818715132773,0.02755865640938282,-0.014215953648090363
1782891183521429500,9.578429443359376,0.00028628981090150774,0.02610643580555916,-0.0197441428899765
1782891183531451600,9.58845166015625,-0.008114385418593884,0.03603550046682358,-0.02388509176671505
1782891183541474600,9.598474609375,-0.009621468372642994,0.04920376464724541,-0.022358035668730736
1782891183551496400,9.608496337890625,-0.016282035037875175,0.048223454505205154,-0.010748251341283321
1782891183561518600,9.6185185546875,-0.013606622815132141,0.03660009056329727,0.0006399576086550951
1782891183571540500,9.62854052734375,-0.014657505787909031,0.016866864636540413,0.01540798507630825
1782891183581562600,9.638562744140625,-0.004809402395039797,0.0001960086519829929,0.019266372546553612
1782891183591584800,9.648584716796876,-0.001564873498864472,-0.009949303232133389,0.017841847613453865
1782891183601606700,9.658606689453125,-0.003787281457334757,-0.00166633992921561,0.004445881117135286
1782891183611628500,9.668628662109375,-0.0019465044606477022,0.010055563412606716,-0.001961418194696307
1782891183621650700,9.678650634765624,0.00310497940517962,0.017660219222307205,-0.006325806491076946
1782891183631672600,9.688672607421875,0.005723665934056044,0.01667059026658535,-0.013745106756687164
1782891183641694500,9.698694580078126,0.01116184052079916,0.011483550071716309,-0.025892583653330803
1782891183651716600,9.708716552734375,0.013610617257654667,0.00509942090138793,-0.028982115909457207
1782891183661738800,9.71873876953125,0.015456986613571644,-0.0017901768442243338,-0.030240992084145546
1782891183671760600,9.7287607421875,0.01738165318965912,-0.00878896377980709,-0.02190503291785717
1782891183681782800,9.73878271484375,0.014405304566025734,-0.013577860780060291,-0.008743423968553543
1782891183691804700,9.7488046875,0.007059241179376841,-0.021995579823851585,0.004238154739141464
1782891183701826600,9.75882666015625,0.004083691164851189,-0.023492809385061264,0.019727099686861038
1782891183711848400,9.768848388671875,0.0022208099253475666,-0.018616827204823494,0.031068703159689903
1782891183721870600,9.77887060546875,0.004797684494405985,-0.007348992861807346,0.0315704420208931
1782891183731892500,9.788892578125,0.0027832696214318275,0.017103087157011032,0.019419770687818527
1782891183741914600,9.79891455078125,0.004708202555775642,0.05277426540851593,-0.0010346380295231938
1782891183751936800,9.808936767578125,-0.0004644552827812731,0.09211660921573639,-0.03947976604104042
1782891183761958700,9.818958740234375,-0.014462295919656754,0.13451546430587769,-0.06690792739391327
1782891183771981800,9.82898193359375,-0.02123604714870453,0.15011467039585114,-0.0725354552268982
1782891183782003700,9.839003662109375,-0.03429459035396576,0.13397671282291412,-0.07563111186027527
1782891183792025600,9.849025634765624,-0.04403137415647507,0.11394547671079636,-0.0685202032327652
1782891183802047500,9.859047607421875,-0.029328327625989914,0.07417702674865723,-0.04652089625597
1782891183812069600,9.869069580078126,-0.018276741728186607,0.03604748472571373,-0.024590831249952316
1782891183822091500,9.879091552734375,-0.006911701988428831,0.024900022894144058,0.0003507383225951344
1782891183832113400,9.889113525390625,-0.009617207571864128,0.02882019616663456,0.023747406899929047
1782891183842135600,9.899135498046874,-0.015590943396091461,0.01961657777428627,0.04731132090091705
1782891183852157700,9.90915771484375,-0.00869149249047041,0.025431590154767036,0.05433407798409462
1782891183862179600,9.9191796875,-0.00640729907900095,0.031505461782217026,0.042091794312000275
1782891183872201700,9.92920166015625,-0.008469917811453342,0.030669495463371277,0.013439642265439034
1782891183882223600,9.9392236328125,-0.011737615801393986,0.03494520112872124,-0.011992214247584343
1782891183892245500,9.94924560546875,-0.008860336616635323,0.042448125779628754,-0.041251566261053085
1782891183902267600,9.959267578125,-0.004839762579649687,0.04968979209661484,-0.05842895433306694
1782891183912289500,9.96928955078125,0.0059937103651463985,0.056228652596473694,-0.07011038064956665
1782891183922311400,9.9793115234375,0.008946623653173447,0.04403004050254822,-0.07121985405683517
1782891183932333800,9.989333740234375,0.0052203284576535225,0.028562402352690697,-0.0762079507112503
1782891183942355700,9.999355712890624,0.014100639149546623,0.022786539047956467,-0.05209862068295479
1782891183952377600,10.009377685546875,0.011198326013982296,0.003858654061332345,-0.01492062583565712
1782891183962399700,10.019399658203126,0.008025968447327614,-0.019219767302274704,0.017405621707439423
1782891183972421600,10.029421630859375,0.000862864195369184,-0.03261546790599823,0.05122057721018791
1782891183982443500,10.039443603515625,0.00009480853623244911,-0.052852828055620193,0.0662171021103859
1782891183992465400,10.04946533203125,-0.0010756507981568575,-0.059304602444171906,0.06269001215696335
1782891184002487600,10.059487548828125,0.0029707562644034624,-0.06094351038336754,0.05072043463587761
1782891184012510500,10.069510498046874,0.0070821442641317844,-0.05315456539392471,0.030193321406841278
1782891184022532600,10.07953271484375,0.017137708142399788,-0.045521680265665054,0.015195198357105255
1782891184032554800,10.0895546875,0.02472798340022564,-0.03748239576816559,0.0024224112275987864
1782891184042576600,10.09957666015625,0.02316071279346943,-0.027100859209895134,-0.003658917034044862
1782891184052598800,10.109598876953125,0.017059942707419395,-0.021250693127512932,-0.004192614462226629
1782891184062620700,10.11962060546875,0.00875168014317751,-0.020007796585559845,-0.011516041122376919
1782891184072642600,10.129642578125,0.0030831415206193924,-0.015543805435299873,-0.011331483721733093
1782891184082664400,10.13966455078125,0.0059993029572069645,-0.005377721041440964,-0.004172374494373798
1782891184092686600,10.1496865234375,0.004487426485866308,0.004467186518013477,-0.005919674411416054
1782891184102708500,10.15970849609375,0.003138535423204303,0.01155891828238964,-0.0073537868447601795
1782891184112730600,10.169730712890624,0.003346261801198125,0.007225954905152321,-0.0025798040442168713
1782891184122752800,10.179752685546875,0.0001968075957847759,0.0022836606949567795,0.0012024171883240342
1782891184132774700,10.189774658203126,0.0022027005907148123,-0.0018394453218206763,0.004402471706271172
1782891184142796500,10.199796630859375,0.0015267902053892612,-0.0062637547962367535,0.0021465078461915255
1782891184152818700,10.209818603515625,0.00549330236390233,-0.003801928833127022,-0.004010987002402544
1782891184162840600,10.219840576171874,0.009607086889445782,0.007896272465586662,-0.006345247384160757
1782891184172862500,10.229862548828125,0.009372728876769543,0.0070464578457176685,-0.0059875850565731525
1782891184182884600,10.239884521484376,0.015430888161063194,0.002630670554935932,-0.013412478379905224
1782891184192906500,10.249906494140625,0.021562017500400543,-0.0057138120755553246,-0.025429725646972656
1782891184202928600,10.2599287109375,0.02304965816438198,-0.011288341134786606,-0.03519314154982567
1782891184212950800,10.26995068359375,0.025372467935085297,-0.0157717727124691,-0.03664829209446907
1782891184222972700,10.27997265625,0.013854030519723892,-0.013826066628098488,-0.029575202614068985
1782891184232995600,10.28999560546875,0.0070736221969127655,-0.01561118382960558,-0.005852829199284315
1782891184243016700,10.3000166015625,0.003005377249792218,-0.03139520809054375,0.01864452473819256
1782891184253038800,10.310038818359375,0.0008455536444671452,-0.04812731593847275,0.03452042490243912
1782891184263060700,10.320060791015624,0.0062280683778226376,-0.05872030556201935,0.05017475411295891
1782891184273082600,10.33008251953125,0.0049398974515497684,-0.06447406113147736,0.0631675198674202
1782891184283105000,10.34010498046875,0.008279767818748951,-0.053409427404403687,0.06005428358912468
1782891184293127000,10.350126953125,0.006624612957239151,-0.04314800351858139,0.0514938160777092
1782891184303148800,10.360148681640625,0.006199839059263468,-0.03431563079357147,0.04189658537507057
1782891184313171000,10.3701708984375,0.008036354556679726,-0.03238510340452194,0.02810700237751007
1782891184323192800,10.38019287109375,0.011377557180821896,-0.036735378205776215,0.009952233172953129
1782891184333214700,10.390214599609376,0.00993279181420803,-0.029262281954288483,-0.0012370382901281118
1782891184343236900,10.40023681640625,0.005329251755028963,-0.01233656145632267,-0.014183463528752327
1782891184353258800,10.4102587890625,-0.00112438655924052,0.007136206608265638,-0.021282386034727097
1782891184363281000,10.420281005859374,-0.007481085602194071,0.017137175425887108,-0.026226278394460678
1782891184373302800,10.430302734375,-0.0052363071590662,0.027900340035557747,-0.021225128322839737
1782891184383325000,10.440324951171876,-0.004140949342399836,0.03297526016831398,-0.010056628845632076
1782891184393346800,10.450346923828125,-0.005961486138403416,0.03678224980831146,-0.0012801815755665302
1782891184403368700,10.46036865234375,-0.005310609471052885,0.032935045659542084,0.009331982582807541
1782891184413390800,10.470390869140624,-0.0067599015310406685,0.033196836709976196,0.009667008183896542
1782891184423412700,10.480412841796875,-0.007005711551755667,0.034339599311351776,0.0015907060587778687
1782891184433434600,10.4904345703125,-0.01326946634799242,0.030593860894441605,-0.009896839037537575
1782891184443456800,10.500456787109375,-0.015921441838145256,0.02810327336192131,-0.005833387840539217
1782891184453479000,10.51047900390625,-0.01461755856871605,0.025197764858603477,-0.0013057478936389089
1782891184463500800,10.520500732421874,-0.013331517577171326,0.022696522995829582,0.00307648372836411
1782891184473524000,10.53052392578125,-0.011292868293821812,0.027246268466114998,-0.00018136126163881272
1782891184483545900,10.5405458984375,-0.014334198087453842,0.030192257836461067,-0.00293400464579463
1782891184493567700,10.550567626953125,-0.0034993935842067003,0.02221369370818138,-0.006374542135745287
1782891184503590000,10.56058984375,0.002004561247304082,0.012552543543279171,-0.008384696207940578
1782891184513611800,10.57061181640625,0.00447038235142827,0.002061286708340049,-0.0024612934794276953
1782891184523633700,10.580633544921875,0.004195277579128742,0.004886900540441275,0.0021462414879351854
1782891184533655800,10.59065576171875,0.0033816818613559008,0.003826429834589362,0.007986287586390972
1782891184543677700,10.600677734375,-0.005645901430398226,-0.0008114652009680867,0.013011139817535877
1782891184553699800,10.610699951171876,-0.005555886775255203,-0.014252705499529839,0.03368259593844414
1782891184563722000,10.620721923828125,-0.000857005245052278,-0.030649522319436073,0.048402152955532074
1782891184573743900,10.630743896484375,0.003049319377169013,-0.03556997701525688,0.05109061300754547
1782891184583765800,10.640765869140624,0.010981544852256775,-0.02978719025850296,0.042515769600868225
1782891184593788000,10.650787841796875,0.014152037911117077,-0.01182390283793211,0.02058623544871807
1782891184603809800,10.660809814453126,0.012605806812644005,0.0105341337621212,-0.006626477465033531
1782891184613831700,10.670831787109375,0.011592473834753036,0.027284884825348854,-0.023790284991264343
1782891184623853800,10.680853759765625,0.005262672435492277,0.03038347139954567,-0.02166747860610485
1782891184633876000,10.6908759765625,0.000708134553860873,0.016222380101680756,-0.015078818425536156
1782891184643897900,10.70089794921875,-0.002749181119725108,0.005435511935502291,-0.0006852313526906073
1782891184653919700,10.710919677734376,0.0027419906109571457,-0.009815612807869911,0.021617677062749863
1782891184663942000,10.72094189453125,0.005790777504444122,-0.021511683240532875,0.03283624351024628
1782891184673963800,10.7309638671875,0.002439189236611128,-0.021991051733493805,0.029815686866641045
1782891184683985700,10.740985595703124,0.006090383045375347,-0.014652712270617485,0.028021248057484627
1782891184694007800,10.7510078125,-0.0005155879771336913,-0.0028988507110625505,0.01878354139626026
1782891184704030700,10.76103076171875,-0.0073383403941988945,-0.002606435678899288,0.008924785070121288
1782891184714052900,10.771052978515625,-0.014311028644442558,-0.0010844392236322165,0.008869924582540989
1782891184724074800,10.78107470703125,-0.0140785351395607,-0.015896407887339592,0.01714329980313778
1782891184734096600,10.7910966796875,-0.01137116551399231,-0.03202051669359207,0.029154157266020775
1782891184744119000,10.801119140625,-0.008976717479526997,-0.04234878718852997,0.034579548984766006
1782891184754141000,10.811140869140624,-0.0034197650384157896,-0.03604854643344879,0.034937210381031036
1782891184764162800,10.821162841796875,0.007918110117316246,-0.0211204644292593,0.0264156274497509
1782891184774184700,10.831184814453126,0.010922156274318695,-0.002907106652855873,0.014913702383637428
1782891184784206800,10.841206787109375,0.007041930686682463,0.009453422389924526,0.008549812249839306
1782891184794228700,10.851228759765625,0.006600112188607454,0.00908350944519043,0.009922938421368599
1782891184804250600,10.861250732421874,-0.0011036139912903309,0.007266967557370663,0.012106730602681637
1782891184814272800,10.871272705078125,-0.0020543625578284264,0.014147244393825531,0.009604157879948616
1782891184824295000,10.881294921875,-0.00878896377980709,0.02131034806370735,0.005176119972020388
1782891184834316800,10.89131689453125,-0.008489358238875866,0.037392910569906235,0.0004857605672441423
1782891184844339000,10.9013388671875,-0.0073196981102228165,0.04691797494888306,-0.010488593950867653
1782891184854360800,10.91136083984375,-0.005218197591602802,0.05174894630908966,-0.023019565269351006
1782891184864382700,10.9213828125,-0.007256847806274891,0.049900978803634644,-0.028066787868738174
1782891184874404900,10.93140478515625,-0.015934757888317108,0.05077822506427765,-0.024656077846884727
1782891184884426800,10.9414267578125,-0.022697854787111282,0.037695180624723434,-0.010457168333232403
1782891184894448600,10.95144873046875,-0.02178705483675003,0.028558939695358276,0.009437710046768188
1782891184904471000,10.961470947265624,-0.015143798664212227,0.027828967198729515,0.02624012529850006
1782891184914493000,10.971492919921875,-0.016866864636540413,0.02401825040578842,0.036792103201150894
1782891184924514800,10.981514892578126,-0.017197895795106888,0.011373295448720455,0.039810530841350555
1782891184934538000,10.9915380859375,-0.009241169318556786,0.007415572181344032,0.036861076951026917
1782891184944559900,11.001559814453126,-0.006347111891955137,0.018507370725274086,0.020592626184225082
1782891184954581800,11.011581787109375,-0.007607319392263889,0.050574228167533875,-0.0077471355907619
1782891184964604000,11.02160400390625,-0.012780243530869484,0.07363347709178925,-0.04141455143690109
1782891184974625800,11.031625732421874,-0.006542587652802467,0.1026531383395195,-0.05866224691271782
1782891184984647700,11.041647705078125,-0.004455734975636005,0.1376848965883255,-0.06978867202997208
1782891184994669800,11.051669921875,0.0034642398823052645,0.14196592569351196,-0.08063598722219467
1782891185004691700,11.061691650390625,0.016689497977495193,0.1440085768699646,-0.07952199131250381
1782891185014713900,11.0717138671875,0.01846902258694172,0.1096750944852829,-0.07493522763252258
1782891185024736000,11.081736083984374,0.02485741302371025,0.07418154925107956,-0.080143041908741
1782891185034758000,11.0917578125,0.028308071196079254,0.04933851957321167,-0.06389322876930237
1782891185044779800,11.10177978515625,0.02594078704714775,0.028906216844916344,-0.03423626720905304
1782891185054801700,11.1118017578125,0.016933975741267204,0.010451043024659157,-0.02214737981557846
1782891185064823800,11.12182373046875,0.013196495361626148,-0.004421379882842302,-0.012998356483876705
1782891185074845700,11.131845703125,0.0035665053874254227,-0.02618073672056198,-0.015139005146920681
1782891185084867800,11.141867919921875,-0.01600160263478756,-0.0678621381521225,-0.02574983797967434
1782891185094890000,11.151889892578126,-0.04441487044095993,-0.11213266104459763,0.010183394886553288
1782891185104912000,11.161911865234375,-0.06891249120235443,-0.16664384305477142,0.08243655413389206
1782891185114933800,11.171933837890625,-0.08619534224271774,-0.23672492802143097,0.1827370524406433
1782891185124956000,11.181955810546874,-0.03255794197320938,-0.2760757803916931,0.2576288878917694
1782891185134977800,11.191977783203125,-0.013843643479049206,-0.3131326138973236,0.2413787990808487
1782891185144999700,11.201999755859376,0.0026069683954119682,-0.28878253698349,0.23099885880947113
