time,seconds_elapsed,z,y,x
1782891174020533200,0.077533203125,2.0674428939819336,-2.6513283252716064,-0.7197285294532776
1782891174030555100,0.08755517578125,2.0953896045684814,-2.858905792236328,-0.8741580247879028
1782891174040577500,0.09757763671875,2.0375049114227295,-3.047177791595459,-1.0933423042297363
1782891174050599400,0.107599365234375,1.9661545753479004,-3.1688010692596436,-1.378190279006958
1782891174060621300,0.117621337890625,1.8914496898651123,-3.1458237171173096,-1.6567561626434326
1782891174070643500,0.1276435546875,1.7756421566009521,-2.9515111446380615,-1.848900556564331
1782891174080665300,0.137665283203125,1.658288836479187,-2.7707877159118652,-2.0122063159942627
1782891174090687200,0.147687255859375,1.5976026058197021,-2.5524380207061768,-2.152024030685425
1782891174100709000,0.157709228515625,1.5729377269744873,-2.2649948596954346,-2.2577743530273438
1782891174110731300,0.167731201171875,1.5148015022277832,-1.9051861763000488,-2.326592206954956
1782891174120753400,0.17775341796875,1.4404489994049072,-1.220125675201416,-2.2578277587890625
1782891174130775300,0.187775390625,1.4414737224578857,-0.3614005446434021,-2.0614383220672607
1782891174140797400,0.19779736328125,1.4531757831573486,0.39080119132995605,-1.8045889139175415
1782891174150819300,0.2078193359375,1.3683288097381592,0.5674880743026733,-1.5618361234664917
1782891174160841200,0.21784130859375,1.145992398262024,-0.2756436765193939,-1.258220911026001
1782891174170863400,0.22786328125,0.792710542678833,-1.4853540658950806,-0.8291015625
1782891174180885200,0.23788525390625,0.43073922395706177,-2.4226906299591064,-0.46513205766677856
1782891174190907100,0.2479072265625,0.3296549618244171,-2.8304154872894287,-0.26281625032424927
1782891174200930300,0.257930419921875,0.423430860042572,-2.7603867053985596,-0.18911416828632355
1782891174210952200,0.2679521484375,0.5283426642417908,-2.4050586223602295,-0.21019309759140015
1782891174220974000,0.27797412109375,0.5893591642379761,-1.901462435722351,-0.288135290145874
1782891174230996000,0.287995849609375,0.5767818093299866,-1.329587459564209,-0.42017802596092224
1782891174241018000,0.29801806640625,0.5117520093917847,-0.8510650396347046,-0.5575008392333984
1782891174251040000,0.3080400390625,0.4051685631275177,-0.48887723684310913,-0.6177968978881836
1782891174261062000,0.318061767578125,0.3282322287559509,-0.401675283908844,-0.5759463906288147
1782891174271083800,0.328083740234375,0.26710471510887146,-0.44900524616241455,-0.4674853980541229
1782891174281106000,0.33810595703125,0.23394443094730377,-0.4466250538825989,-0.3529759347438812
1782891174291127800,0.3481279296875,0.23026101291179657,-0.3731907904148102,-0.23048944771289825
1782891174301150000,0.35814990234375,0.23771798610687256,-0.2373681515455246,-0.10462459176778793
1782891174311172000,0.368172119140625,0.23550064861774445,-0.1128147765994072,0.05788283050060272
1782891174321194000,0.378194091796875,0.23203028738498688,-0.08032900094985962,0.2422686517238617
1782891174331216000,0.3882158203125,0.2217041403055191,-0.11465075612068176,0.40501174330711365
1782891174341238000,0.398238037109375,0.2055477499961853,-0.19332824647426605,0.49932023882865906
1782891174351260000,0.408260009765625,0.1751032918691635,-0.23339655995368958,0.4937763214111328
1782891174361281800,0.41828173828125,0.12068983912467957,-0.24324233829975128,0.3993786871433258
1782891174371304000,0.428303955078125,0.06774966418743134,-0.2201830893754959,0.2717243432998657
1782891174381326000,0.438326171875,0.03939489647746086,-0.18830882012844086,0.1468929648399353
1782891174391348000,0.448347900390625,0.011033031158149242,-0.13401761651039124,0.058131683617830276
1782891174401371000,0.458370849609375,-0.011041968129575253,-0.0937015488743782,0.015642892569303513
1782891174411393000,0.46839306640625,-0.03326285257935524,-0.07100822031497955,0.004833654500544071
1782891174421415000,0.478414794921875,-0.039535198360681534,-0.06647004187107086,0.035061392933130264
1782891174431437000,0.48843701171875,-0.038636382669210434,-0.07343287765979767,0.08144247531890869
1782891174441459000,0.498458984375,-0.024322548881173134,-0.08616548031568527,0.12176340073347092
1782891174451480800,0.508480712890625,-0.025837088003754616,-0.09601039439439774,0.15296420454978943
1782891174461503000,0.5185029296875,-0.02897043339908123,-0.10332094132900238,0.17391249537467957
1782891174471524900,0.52852490234375,-0.03257768601179123,-0.10057015717029572,0.1953384280204773
1782891174481546800,0.538546630859375,-0.031978145241737366,-0.083116814494133,0.22216199338436127
1782891174491569200,0.548569091796875,-0.038291964679956436,-0.04901770129799843,0.22795915603637695
1782891174501591000,0.558591064453125,-0.05118605121970177,-0.009448488242924213,0.20621724426746368
1782891174511613000,0.568613037109375,-0.06437615305185318,0.027679171413183212,0.15967904031276703
1782891174521635000,0.578635009765625,-0.06740311533212662,0.06845783442258835,0.10560672730207443
1782891174531657000,0.588656982421875,-0.05943920090794563,0.10746622085571289,0.05132991075515747
1782891174541678800,0.598678955078125,-0.04297444969415665,0.12611286342144012,0.000682460842654109
1782891174551700700,0.60870068359375,-0.024613289162516594,0.11978892982006073,-0.026068726554512978
1782891174561723000,0.618722900390625,-0.009796015918254852,0.12109547853469849,-0.02449028566479683
1782891174571745000,0.6287451171875,-0.0027210614643990993,0.1334693282842636,-0.010367277078330517
1782891174581767000,0.638766845703125,-0.003840177319943905,0.15058259665966034,0.0024497956037521362
1782891174591789000,0.6487890625,-0.0038899783976376057,0.17321734130382538,-0.003322605974972248
1782891174601812000,0.65881201171875,-0.012190376408398151,0.20898862183094025,-0.009323901496827602
1782891174611834000,0.668834228515625,-0.023680850863456726,0.2498718649148941,-0.027619285508990288
1782891174621856000,0.67885595703125,-0.027716023847460747,0.26532819867134094,-0.04262068495154381
1782891174631878000,0.6888779296875,-0.033610668033361435,0.2726902365684509,-0.049700167030096054
1782891174641899800,0.698899658203125,-0.03271970525383949,0.26292139291763306,-0.048942361027002335
1782891174651922000,0.708921875,-0.024590935558080673,0.23369984328746796,-0.04417503625154495
1782891174661943800,0.71894384765625,-0.011528183706104755,0.21538670361042023,-0.03314334899187088
1782891174671966000,0.728966064453125,-0.008809096179902554,0.20762652158737183,-0.02844180352985859
1782891174681988000,0.738988037109375,-0.003643043339252472,0.1957748383283615,-0.03730487823486328
1782891174692010000,0.749010009765625,-0.002209197264164686,0.18766018748283386,-0.036900609731674194
1782891174702032000,0.759031982421875,-0.004210343584418297,0.17216525971889496,-0.021964196115732193
1782891174712054000,0.769053955078125,-0.010377958416938782,0.15051987767219543,-0.011976009234786034
1782891174722076000,0.779075927734375,-0.009815049357712269,0.1309203803539276,-0.005754008889198303
1782891174732097800,0.789097900390625,-0.004693790338933468,0.11818061023950577,-0.010797769762575626
1782891174742120000,0.799119873046875,-0.0035974853672087193,0.09590170532464981,-0.03040541708469391
1782891174752142000,0.80914208984375,-0.006202323362231255,0.06832706928253174,-0.05468146130442619
1782891174762164000,0.8191640625,-0.011026510037481785,0.04464900121092796,-0.07057666778564453
1782891174772186000,0.82918603515625,-0.016160018742084503,0.03715592995285988,-0.06866878271102905
1782891174782208000,0.8392080078125,-0.019023852422833443,0.03752914071083069,-0.05831614509224892
1782891174792231000,0.84923095703125,-0.026087088510394096,0.03146831691265106,-0.041825853288173676
1782891174802253000,0.859253173828125,-0.022947538644075394,0.020039977505803108,-0.030951829627156258
1782891174812275000,0.86927490234375,-0.011470379307866096,-0.0009334818460047245,-0.017826972529292107
1782891174822296800,0.879296875,-0.0031520165503025055,-0.021107923239469528,-0.007573011331260204
1782891174832319000,0.889319091796875,0.008128334768116474,-0.03286870941519737,0.0023885429836809635
1782891174842340900,0.8993408203125,0.011339515447616577,-0.037176091223955154,0.00200085761025548
1782891174852362800,0.90936279296875,0.012045785784721375,-0.02139073610305786,-0.011216677725315094
1782891174862385200,0.91938525390625,0.014238333329558372,-0.0015116198919713497,-0.029573775827884674
1782891174872407000,0.929406982421875,0.018033869564533234,0.019152112305164337,-0.058228056877851486
1782891174882429000,0.939428955078125,0.016233127564191818,0.03613772615790367,-0.07806901633739471
1782891174892451000,0.949451171875,0.023419668897986412,0.03866959363222122,-0.09436596930027008
1782891174902473000,0.959472900390625,0.01952812634408474,0.02257148176431656,-0.10219712555408478
1782891174912494800,0.969494873046875,0.01371790748089552,-0.013279726728796959,-0.0976625606417656
1782891174922516700,0.979516845703125,0.013762518763542175,-0.05085569620132446,-0.07317519187927246
1782891174932539000,0.989538818359375,0.020312031731009483,-0.06204363703727722,-0.03629440441727638
1782891174942561000,0.99956103515625,0.01996694505214691,-0.061796512454748154,-0.0030579599551856518
1782891174952583000,1.0095830078125,0.014953543432056904,-0.05312152951955795,0.019884638488292694
1782891174962605000,1.01960498046875,0.009949469938874245,-0.038116682320833206,0.029002243652939796
1782891174972627000,1.029626953125,0.0022356235422194004,-0.02856658771634102,0.021524086594581604
1782891174982648800,1.03964892578125,-0.0019313591765239835,-0.028601424768567085,-0.002004210138693452
1782891174992672000,1.049672119140625,-0.0024626599624753,-0.026690872386097908,-0.02421550452709198
1782891175002694000,1.05969384765625,0.0049169003032147884,-0.014433126896619797,-0.04301335662603378
1782891175012716000,1.069716064453125,0.01210290752351284,-0.009627985768020153,-0.060120437294244766
1782891175022738000,1.079738037109375,0.014399747364223003,-0.0013784770853817463,-0.06759393960237503
1782891175032759800,1.089759765625,0.015981400385499,0.015854038298130035,-0.06320770829916
1782891175042782000,1.099781982421875,0.019878659397363663,0.02741921693086624,-0.056196682155132294
1782891175052804000,1.10980419921875,0.016025330871343613,0.028644539415836334,-0.05291913077235222
1782891175062826000,1.119825927734375,0.011026198044419289,0.01627212017774582,-0.046812620013952255
1782891175072848000,1.129847900390625,0.004215430002659559,0.006767564918845892,-0.030969474464654922
1782891175082870000,1.1398701171875,0.0049211615696549416,-0.006593846250325441,-0.008057770319283009
1782891175092892000,1.149891845703125,0.01156361773610115,-0.017590835690498352,0.013012094423174858
1782891175102913800,1.159913818359375,0.01902465894818306,-0.02034546062350273,0.02575298771262169
1782891175112936000,1.16993603515625,0.020067820325493813,-0.019479133188724518,0.03117251954972744
1782891175122957800,1.179957763671875,0.015097620896995068,-0.007724221795797348,0.02492227405309677
1782891175132980000,1.18997998046875,0.012318878434598446,0.008171654306352139,0.013293849304318428
1782891175143002000,1.200002197265625,0.012650437653064728,0.02224879339337349,-0.0007921479409560561
1782891175153024000,1.21002392578125,0.01669178530573845,0.017150435596704483,-0.0075411307625472546
1782891175163046000,1.2200458984375,0.01815733313560486,0.01493002288043499,-0.0044888718985021114
1782891175173068000,1.230068115234375,0.024702582508325577,0.013923082500696182,0.006482552271336317
1782891175183090000,1.24008984375,0.02439214289188385,0.01981157809495926,0.015464271418750286
1782891175193112800,1.25011279296875,0.021424315869808197,0.02414693683385849,0.020113617181777954
1782891175203135000,1.260135009765625,0.011554433032870293,0.03656870499253273,0.018567316234111786
1782891175213156900,1.270156982421875,0.009505929425358772,0.04731881991028786,0.008161813952028751
1782891175223179000,1.280178955078125,0.005776633508503437,0.05337686091661453,0.0008765349630266428
1782891175233201200,1.290201171875,-0.0008431859314441681,0.05191612243652344,-0.007946783676743507
1782891175243223300,1.300223388671875,-0.0035960176028311253,0.04332467541098595,-0.010486702434718609
1782891175253245200,1.3102451171875,-0.009717559441924095,0.05123426392674446,-0.022580916061997414
1782891175263267300,1.320267333984375,-0.014604725874960423,0.06284857541322708,-0.043700847774744034
1782891175273289200,1.330289306640625,-0.014927768148481846,0.0677701011300087,-0.06152991205453873
1782891175283311000,1.34031103515625,-0.014048448763787746,0.06065787747502327,-0.06554961949586868
1782891175293333200,1.350333251953125,-0.014752589166164398,0.0493498295545578,-0.06193064898252487
1782891175303355100,1.360355224609375,-0.017247453331947327,0.02537538670003414,-0.04825159162282944
1782891175313377000,1.370376953125,-0.017280742526054382,0.008496806025505066,-0.02877616323530674
1782891175323399400,1.3803994140625,-0.020872734487056732,-0.0019737626425921917,-0.005291672423481941
1782891175333421300,1.39042138671875,-0.02151801809668541,-0.011022917926311493,0.009386073797941208
1782891175343443200,1.400443115234375,-0.015541855245828629,-0.007397630717605352,0.02350313402712345
1782891175353465000,1.410465087890625,-0.008491934277117252,0.002373773604631424,0.023942023515701294
1782891175363487200,1.4204873046875,-0.0009013137314468622,0.00022697681561112404,0.019296085461974144
1782891175373509000,1.430509033203125,0.01283527072519064,-0.007162762340158224,0.017313895747065544
1782891175383531000,1.440531005859375,0.024955127388238907,-0.02625664696097374,0.013903656043112278
1782891175393554200,1.45055419921875,0.03802911937236786,-0.04798058420419693,0.009778419509530067
1782891175403576000,1.460576171875,0.04551173746585846,-0.06805740296840668,-0.0006994534633122385
1782891175413598200,1.47059814453125,0.04991127923130989,-0.08703642338514328,-0.002379908226430416
1782891175423620000,1.4806201171875,0.0583353266119957,-0.10307056456804276,0.0012958539882674813
1782891175433642200,1.490642333984375,0.06680817157030106,-0.11697226762771606,0.01734965480864048
1782891175443664100,1.5006640625,0.06671442836523056,-0.12516948580741882,0.03246016427874565
1782891175453686300,1.510686279296875,0.06369813531637192,-0.1322585493326187,0.049449533224105835
1782891175463708200,1.520708251953125,0.06530248373746872,-0.1405244916677475,0.061430227011442184
1782891175473730000,1.53072998046875,0.06460286676883698,-0.13912419974803925,0.06859385967254639
1782891175483752200,1.540752197265625,0.05167648568749428,-0.13534265756607056,0.08065339177846909
1782891175493774000,1.550774169921875,0.04693739116191864,-0.1282900720834732,0.0850880891084671
1782891175503796200,1.560796142578125,0.04903189465403557,-0.11005312204360962,0.08472862094640732
1782891175513818400,1.570818359375,0.051308900117874146,-0.07545973360538483,0.06776135414838791
1782891175523840300,1.58084033203125,0.04706908389925957,-0.04021283984184265,0.047217801213264465
1782891175533862100,1.590862060546875,0.04873169586062431,-0.01998666673898697,0.022743886336684227
1782891175543884300,1.60088427734375,0.04199215769767761,-0.002368223387748003,0.0028597870841622353
1782891175553906200,1.61090625,0.035220272839069366,0.007020484656095505,-0.007709234021604061
1782891175563928000,1.620927978515625,0.03136821463704109,0.011925775557756424,-0.0099605992436409
1782891175573950200,1.6309501953125,0.03362524136900902,0.01888461597263813,-0.0006142351776361465
1782891175583972000,1.64097216796875,0.03210943564772606,0.020797614008188248,0.005247314926236868
1782891175593995000,1.6509951171875,0.02881510742008686,0.020428767427802086,0.010339811444282532
1782891175604017200,1.66101708984375,0.020293939858675003,0.02275853231549263,0.008761761710047722
1782891175614039300,1.671039306640625,0.009670325554907322,0.027653153985738754,0.01004221010953188
1782891175624061200,1.681061279296875,0.0036423825658857822,0.03231159225106239,-0.00033147179055958986
1782891175634083300,1.691083251953125,-0.0026213722303509712,0.031784553080797195,-0.0018500061705708504
1782891175644105200,1.701105224609375,-0.0032664546743035316,0.027910400182008743,-0.008128074929118156
1782891175654127000,1.711127197265625,0.0004385349457152188,0.024612074717879295,-0.009887093678116798
1782891175664149200,1.721149169921875,0.00597663689404726,0.01775282248854637,-0.0018121924949809909
1782891175674171100,1.731171142578125,0.008422218263149261,0.008534823544323444,0.005943997763097286
1782891175684193000,1.741193115234375,0.013464458286762238,0.005639083683490753,0.016410958021879196
1782891175694215400,1.75121533203125,0.014937186613678932,0.010011195205152035,0.01768847554922104
1782891175704237300,1.7612373046875,0.013536695390939713,0.0016630343161523342,0.016705702990293503
1782891175714259200,1.77125927734375,0.011263154447078705,-0.00030664028599858284,0.0018255567410960793
1782891175724281000,1.781281005859375,0.0146498316898942,-0.007481245789676905,-0.004829615354537964
1782891175734303200,1.79130322265625,0.01278908085078001,-0.010415516793727875,-0.0049265543930232525
1782891175744325000,1.8013251953125,0.008763222955167294,-0.01487945206463337,0.005935864057391882
1782891175754347000,1.811346923828125,0.009124613367021084,-0.024764839559793472,0.020634382963180542
1782891175764369200,1.821369140625,-0.0012069024378433824,-0.03490468114614487,0.03341896831989288
1782891175774391300,1.831391357421875,0.0004613017663359642,-0.02656126394867897,0.046957146376371384
1782891175784413200,1.8414130859375,0.005235572811216116,-0.021806523203849792,0.05078677833080292
1782891175794435300,1.851435302734375,0.0067133610136806965,-0.01787916012108326,0.04918035864830017
1782891175804457200,1.861457275390625,0.007308152504265308,-0.013229111209511757,0.03999604284763336
1782891175814480400,1.87148046875,0.007900439202785492,-0.011025878600776196,0.023426121100783348
1782891175824502300,1.881502197265625,0.005403862334787846,-0.009236601181328297,0.01386870164424181
1782891175834524200,1.891524169921875,-0.000750170205719769,-0.00883952435106039,0.0030626594088971615
1782891175844546000,1.901546142578125,-0.007361114956438541,-0.010558078996837139,0.0022985371761024
1782891175854568200,1.911568115234375,-0.015958063304424286,-0.004060764797031879,0.0005278012249618769
1782891175864590000,1.921590087890625,-0.021632540971040726,0.0005375323817133904,0.0013302761362865567
1782891175874612000,1.931612060546875,-0.024412881582975388,0.006532574072480202,0.00029856746550649405
1782891175884634400,1.94163427734375,-0.0180947408080101,0.017174016684293747,-0.004533808212727308
1782891175894656300,1.95165625,-0.018999150022864342,0.02676858939230442,-0.008969036862254143
1782891175904678100,1.96167822265625,-0.01824268139898777,0.029024919494986534,-0.011024332605302334
1782891175914700300,1.9717001953125,-0.017549993470311165,0.023435208946466446,-0.008493797853589058
1782891175924722200,1.98172216796875,-0.026688234880566597,0.017621096223592758,-0.005548476241528988
1782891175934744000,1.991744140625,-0.02254834957420826,0.0049231452867388725,0.0019350064685568213
1782891175944766200,2.00176611328125,-0.01920127123594284,-0.006115726660937071,0.007345226127654314
1782891175954788000,2.0117880859375,-0.01848621293902397,-0.0054427459836006165,0.013468632474541664
1782891175964810200,2.021810302734375,-0.02607322670519352,-0.005541232414543629,0.00876169465482235
1782891175974832400,2.031832275390625,-0.03237772732973099,-0.018442116677761078,0.0022252320777624846
1782891175984854300,2.041854248046875,-0.030361201614141464,-0.028842492029070854,-0.006846302188932896
1782891175994876200,2.051876220703125,-0.025685489177703857,-0.01482813898473978,-0.005711263045668602
1782891176004898000,2.06189794921875,-0.02713317796587944,-0.014676540158689022,-0.010148618370294571
1782891176014920200,2.071920166015625,-0.024824216961860657,-0.0035208244808018208,-0.00508807972073555
1782891176024942000,2.081942138671875,-0.021530067548155785,0.0012480802834033966,-0.0038356552831828594
1782891176034965200,2.09196533203125,-0.023077363148331642,-0.0018433169461786747,0.0016496576135978103
1782891176044987100,2.101987060546875,-0.01522133219987154,-0.008972063660621643,0.016414742916822433
1782891176055009000,2.112009033203125,-0.006480038166046143,-0.010812308639287949,0.03196520730853081
1782891176065031200,2.12203125,0.004759046249091625,-0.004204608500003815,0.03735065832734108
1782891176075053300,2.13205322265625,0.00930293183773756,0.014037245884537697,0.0274873748421669
1782891176085075200,2.1420751953125,0.007199993822723627,0.03595063462853432,0.005301251541823149
1782891176095097300,2.152097412109375,0.008565129712224007,0.04835271090269089,-0.018114060163497925
1782891176105119200,2.162119140625,0.012781293131411076,0.06069562956690788,-0.03666018322110176
1782891176115141000,2.17214111328125,0.011088321916759014,0.06948032975196838,-0.04550986737012863
1782891176125163000,2.1821630859375,0.007441914640367031,0.07086031138896942,-0.04851631075143814
1782891176135185200,2.19218505859375,0.003181922249495983,0.06738675385713577,-0.04040884971618652
1782891176145207000,2.20220703125,0.0006442443118430674,0.06350637972354889,-0.028287019580602646
1782891176155229200,2.212229248046875,0.00028232065960764885,0.050893384963274,-0.014928869903087616
1782891176165251300,2.222251220703125,0.0026046852581202984,0.023639438673853874,-0.002209931146353483
1782891176175273200,2.232273193359375,0.001963928807526827,0.0028193783946335316,0.008057087659835815
1782891176185295000,2.242295166015625,0.003458215855062008,-0.0122390640899539,0.020072730258107185
1782891176195317200,2.252317138671875,-0.0015112425899133086,-0.010114394128322601,0.013552247546613216
1782891176205339100,2.262339111328125,-0.007524927146732807,-0.0019454136490821838,-0.0023039469961076975
1782891176215361000,2.272361083984375,-0.00922961626201868,-0.003532391507178545,-0.01738383062183857
1782891176225383000,2.2823828125,-0.014160387217998505,-0.008186416700482368,-0.01911681331694126
1782891176235404800,2.29240478515625,-0.019947435706853867,-0.02005532756447792,-0.018947701901197433
1782891176245428000,2.302427978515625,-0.019671527668833733,-0.035749536007642746,0.00041880784556269646
1782891176255449900,2.312449951171875,-0.018070967867970467,-0.043744344264268875,0.02457953803241253
1782891176265471700,2.3224716796875,-0.01621495559811592,-0.0526558980345726,0.04752206429839134
1782891176275494000,2.332493896484375,-0.013877767138183117,-0.059653349220752716,0.060103900730609894
1782891176285515800,2.342515869140625,-0.009288055822253227,-0.05317448079586029,0.060494594275951385
1782891176295537700,2.35253759765625,-0.007202801760286093,-0.044298965483903885,0.05378928780555725
1782891176305559800,2.362559814453125,-0.0011200344888493419,-0.03029143251478672,0.03572092205286026
1782891176315581700,2.372581787109375,-0.007273534312844276,-0.010014921426773071,0.013908302411437035
1782891176325603800,2.382603759765625,-0.013297198340296745,-0.003111245110630989,-0.0037227480206638575
1782891176335626000,2.3926259765625,-0.012162957340478897,-0.0016315928660333157,-0.015124273486435413
1782891176345647900,2.40264794921875,-0.012811969965696335,0.00035326089709997177,-0.017263855785131454
1782891176355669800,2.412669677734375,-0.0057303584180772305,0.010443978011608124,-0.023785404860973358
1782891176365692000,2.42269189453125,-0.0006505680503323674,0.02073621191084385,-0.031310759484767914
1782891176375713800,2.4327138671875,-0.003161928616464138,0.021011848002672195,-0.03482773154973984
1782891176385735700,2.442735595703125,0.0005533108487725258,0.016014527529478073,-0.02703865058720112
1782891176395757800,2.4527578125,-0.0003479028819128871,0.007221834734082222,-0.006377049256116152
1782891176405779700,2.46277978515625,-0.0028427522629499435,-0.0041053881868720055,0.01393008604645729
1782891176415801900,2.4728017578125,-0.007523257751017809,-0.010046368464827538,0.03246808424592018
1782891176425824000,2.482823974609375,-0.009993541054427624,-0.01847282610833645,0.04209108278155327
1782891176435846000,2.492845947265625,-0.010013781487941742,-0.02035035379230976,0.04325142502784729
1782891176445867800,2.50286767578125,-0.01069467980414629,-0.01304971519857645,0.03145967796444893
1782891176455891000,2.512890869140625,-0.012120802886784077,-0.0013557751663029194,0.016051961109042168
1782891176465912800,2.522912841796875,-0.013002835214138031,0.01016219612210989,0.0015603731153532863
1782891176475934700,2.532934814453125,-0.013918163254857063,0.019306957721710205,-0.004844529088586569
1782891176485956900,2.542956787109375,-0.009493119083344936,0.015159833244979382,-0.0068346429616212845
1782891176495978800,2.552978759765625,-0.00442991778254509,0.004356188699603081,-0.009256254881620407
1782891176506000600,2.563000732421875,0.0010302119189873338,-0.0029294518753886223,-0.009373574517667294
1782891176516023000,2.57302294921875,0.0003873248351737857,-0.004921762738376856,-0.02250295877456665
1782891176526045000,2.583044921875,-0.010494993068277836,-0.0013812584802508354,-0.02484879456460476
1782891176536066800,2.59306689453125,-0.012190894223749638,0.0005828225985169411,-0.02010117843747139
1782891176546088700,2.603088623046875,-0.017781134694814682,-0.004526185803115368,0.0019567199051380157
1782891176556110800,2.61311083984375,-0.018430881202220917,-0.009007437154650688,0.022433431819081306
1782891176566132700,2.6231328125,-0.013918300159275532,-0.020054994150996208,0.039536647498607635
1782891176576154600,2.633154541015625,-0.009596789255738258,-0.0257222019135952,0.048015087842941284
1782891176586176800,2.6431767578125,-0.0026236972771584988,-0.019451355561614037,0.04025157541036606
1782891176596199000,2.653198974609375,0.0055354293435812,-0.006314781494438648,0.02960931695997715
1782891176606220800,2.663220703125,0.013873312622308731,0.007016987539827824,0.01577199622988701
1782891176616243000,2.673242919921875,0.013788623735308647,0.020228397101163864,0.0077976929023861885
1782891176626264800,2.683264892578125,0.017097465693950653,0.027784151956439018,0.0011436499189585447
1782891176636286700,2.69328662109375,0.02213163860142231,0.03646498918533325,-0.002565068192780018
1782891176646308900,2.703308837890625,0.03415040671825409,0.03775298222899437,0.01104933675378561
1782891176656330800,2.713330810546875,0.03589850664138794,0.029372014105319977,0.021703844889998436
1782891176666353700,2.723353759765625,0.046444520354270935,0.019040176644921303,0.034029632806777954
1782891176676375800,2.733375732421875,0.0582100972533226,0.011733794584870338,0.043181587010622025
1782891176686397700,2.743397705078125,0.05527421459555626,0.009258786216378212,0.03628852218389511
1782891176696419800,2.753419921875,0.05484917387366295,0.005187345668673515,0.023567669093608856
1782891176706442000,2.76344189453125,0.049819350242614746,0.001685005147010088,0.008170275017619133
1782891176716463900,2.7734638671875,0.04135103151202202,-0.009488820098340511,-0.008130934089422226
1782891176726485800,2.78348583984375,0.03492147475481033,-0.023222774267196655,-0.00703571317717433
1782891176736508000,2.7935078125,0.02990408055484295,-0.03497130796313286,0.005743198562413454
1782891176746529800,2.80352978515625,0.02251453697681427,-0.050897661596536636,0.0290275476872921
1782891176756551700,2.8135517578125,0.022769933566451073,-0.06113778054714203,0.046461399644613266
1782891176766573800,2.82357373046875,0.02195083163678646,-0.06220093369483948,0.05325612425804138
1782891176776595700,2.833595703125,0.024074701592326164,-0.05813135951757431,0.04766561836004257
1782891176786617900,2.843617919921875,0.027320949360728264,-0.05707564577460289,0.037424296140670776
1782891176796640000,2.853639892578125,0.03284727409482002,-0.0544779971241951,0.02516123838722706
1782891176806662000,2.863661865234375,0.03240951895713806,-0.05165260285139084,0.0177322831004858
1782891176816683800,2.873683837890625,0.028554324060678482,-0.04962833225727081,0.013064028695225716
1782891176826705700,2.88370556640625,0.022473381832242012,-0.04059119150042534,0.012711284682154655
1782891176836727800,2.893727783203125,0.020075738430023193,-0.034909069538116455,0.009795389138162136
1782891176846749700,2.903749755859375,0.017478706315159798,-0.023158693686127663,0.01015832182019949
1782891176856771600,2.913771484375,0.013756672851741314,-0.02001243457198143,0.004666616674512625
1782891176866794000,2.9237939453125,0.014840176329016685,-0.021583331748843193,0.007512602489441633
1782891176876816000,2.93381591796875,0.009668849408626556,-0.021828075870871544,0.0012704195687547326
1782891176886839000,2.943839111328125,0.006840299814939499,-0.021881138905882835,-0.005603734869509935
1782891176896861000,2.95386083984375,0.007852034643292427,-0.02196050062775612,-0.010695432312786579
1782891176906882800,2.9638828125,0.004192073829472065,-0.021488124504685402,-0.015219603665173054
1782891176916905000,2.973905029296875,0.005929253995418549,-0.024801630526781082,-0.011727401055395603
1782891176926926800,2.9839267578125,0.006933907046914101,-0.023717287927865982,-0.007534395437687635
1782891176936948700,2.99394873046875,0.004488060250878334,-0.016554981470108032,0.0041869753040373325
1782891176946970600,3.003970703125,0.0011929436586797237,-0.008342728950083256,0.016056424006819725
1782891176956992800,3.01399267578125,0.0008046547882258892,0.0033320370130240917,0.017548592761158943
1782891176967015000,3.024014892578125,0.0016449904069304466,0.009721335023641586,0.0193809624761343
1782891176977036800,3.034036865234375,0.002063373103737831,0.00551513722166419,0.011798410676419735
1782891176987059000,3.044058837890625,0.004189928527921438,-0.0021161572076380253,0.01184290274977684
1782891176997080800,3.054080810546875,0.005339348688721657,-0.012524856254458427,0.012885263189673424
1782891177007102700,3.064102783203125,0.007256558630615473,-0.021603839471936226,0.010321704670786858
1782891177017124900,3.074124755859375,0.005626970436424017,-0.020862946286797523,-0.0007056458853185177
1782891177027146800,3.084146728515625,0.007154683116823435,-0.01589292101562023,-0.012928628362715244
1782891177037168600,3.094168701171875,0.0030693942680954933,0.001017353031784296,-0.021939434111118317
1782891177047190800,3.104190673828125,0.004835939966142178,0.009163545444607735,-0.027337724342942238
1782891177057213000,3.114212890625,0.004948059096932411,0.012282373383641243,-0.021382629871368408
1782891177067234800,3.12423486328125,-0.0004873875295743346,0.0102847870439291,-0.016818039119243622
1782891177077257000,3.134257080078125,-0.0047329990193247795,-0.0006698602810502052,-0.009678104892373085
1782891177087279900,3.14427978515625,0.0042347414419054985,-0.01342302467674017,-0.002798955189064145
1782891177097301800,3.1543017578125,0.01236377377063036,-0.024876482784748077,0.005249383859336376
1782891177107324000,3.164323974609375,0.017695970833301544,-0.032361164689064026,0.008803107775747776
1782891177117345800,3.174345703125,0.02116074413061142,-0.03834608569741249,0.011703556403517723
1782891177127367700,3.18436767578125,0.019614027813076973,-0.03637436404824257,0.008045103400945663
1782891177137389800,3.194389892578125,0.013487959280610085,-0.03378497064113617,0.005997132044285536
1782891177147411700,3.20441162109375,0.008110188879072666,-0.02895471267402172,0.00849231705069542
1782891177157433900,3.214433837890625,0.00545714795589447,-0.02738424763083458,0.0032091387547552586
1782891177167456000,3.2244560546875,0.003024730831384659,-0.021374590694904327,-0.0011676371796056628
1782891177177478000,3.234477783203125,0.0074069625698029995,-0.02445613406598568,-0.0115736722946167
1782891177187499800,3.244499755859375,0.014043222181499004,-0.027071207761764526,-0.00825504306703806
1782891177197522000,3.25452197265625,0.01917247101664543,-0.035066552460193634,0.0015909295761957765
1782891177207543800,3.264543701171875,0.027663420885801315,-0.04766363650560379,0.007990235462784767
1782891177217565700,3.274565673828125,0.02986745350062847,-0.05126209557056427,0.009654977358877659
1782891177227588400,3.28458837890625,0.03057699091732502,-0.055397871881723404,0.012093303725123405
1782891177237610200,3.2946103515625,0.03158259764313698,-0.05523941293358803,0.01688566245138645
1782891177247632400,3.30463232421875,0.03172416239976883,-0.05499463528394699,0.018167845904827118
1782891177257654500,3.314654541015625,0.028135821223258972,-0.056756846606731415,0.017021089792251587
1782891177267676400,3.324676513671875,0.02999112382531166,-0.06286750733852386,0.020044976845383644
1782891177277698600,3.334698486328125,0.028255010023713112,-0.0684465616941452,0.024274077266454697
1782891177287720400,3.344720458984375,0.023823019117116928,-0.06931783258914948,0.024813562631607056
1782891177297742300,3.354742431640625,0.024704791605472565,-0.06583042442798615,0.027376322075724602
1782891177307765500,3.364765625,0.027098922058939934,-0.05477502569556236,0.029180418699979782
1782891177317787400,3.374787353515625,0.02965369261801243,-0.04014015570282936,0.03177487105131149
1782891177327809300,3.384809326171875,0.03645319491624832,-0.027507102116942406,0.04184620827436447
1782891177337831400,3.39483154296875,0.03784815967082977,-0.025572583079338074,0.0426078736782074
1782891177347853300,3.404853271484375,0.03852573409676552,-0.028284961357712746,0.037982162088155746
1782891177357875500,3.41487548828125,0.047112565487623215,-0.01776813715696335,0.03223026543855667
1782891177367897600,3.424897705078125,0.059915900230407715,-0.001994948834180832,0.025725023820996284
1782891177377919500,3.43491943359375,0.0658118724822998,0.010721379891037941,0.005898056551814079
1782891177387941400,3.44494140625,0.0667322650551796,0.011188562959432602,-0.012537405826151371
1782891177397963500,3.454963623046875,0.061375584453344345,0.015102077275514603,-0.020708782598376274
1782891177407985400,3.4649853515625,0.05678623169660568,0.0012726648710668087,-0.011652236804366112
1782891177418007300,3.47500732421875,0.045905355364084244,-0.01783924363553524,0.005388000048696995
1782891177428029400,3.485029541015625,0.03302004188299179,-0.028756506741046906,0.02923860400915146
1782891177438051600,3.495051513671875,0.030716942623257637,-0.030910471454262733,0.04669908806681633
1782891177448073500,3.505073486328125,0.022222939878702164,-0.03519972786307335,0.0512031614780426
1782891177458095600,3.515095703125,0.017787711694836617,-0.039917781949043274,0.05935269966721535
1782891177468117500,3.525117431640625,0.018720215186476707,-0.04594414681196213,0.06454706937074661
1782891177478139400,3.535139404296875,0.01367831788957119,-0.041732363402843475,0.059248171746730804
1782891177488161300,3.545161376953125,0.004820467904210091,-0.02994682267308235,0.047643113881349564
1782891177498183400,3.555183349609375,-0.002049155766144395,-0.01922919787466526,0.03288094699382782
1782891177508205300,3.565205322265625,-0.009485202841460705,-0.002876540180295706,0.019374655559659004
1782891177518227500,3.5752275390625,-0.01228498388081789,0.012930652126669884,0.00690866494551301
1782891177528249600,3.58524951171875,-0.012391445226967335,0.026605235412716866,-0.008560107089579105
1782891177538272300,3.595272216796875,-0.009009229950606823,0.03878254070878029,-0.018514204770326614
1782891177548294700,3.605294677734375,-0.006886957213282585,0.05240088328719139,-0.029400674626231194
1782891177558316500,3.615316650390625,-0.007645958103239536,0.0546075776219368,-0.04093882068991661
1782891177568338400,3.62533837890625,-0.006337694823741913,0.04389924183487892,-0.03969792649149895
1782891177578360600,3.635360595703125,-0.006027170456945896,0.027721604332327843,-0.037051811814308167
1782891177588382500,3.645382568359375,-0.005230730399489403,0.01226417813450098,-0.023341981694102287
1782891177598404400,3.655404296875,0.0008074546931311488,0.0006567914970219135,-0.004296383820474148
1782891177608426200,3.66542626953125,0.0018040742725133896,-0.00564552890136838,0.011658813804388046
1782891177618448400,3.675448486328125,0.0015260402578860521,-0.005333140026777983,0.02119133062660694
1782891177628470500,3.685470458984375,-0.0019179595401510596,-0.004735260270535946,0.02497648261487484
1782891177638492400,3.695492431640625,-0.006708454340696335,-0.011178245767951012,0.026706472039222717
1782891177648514600,3.7055146484375,-0.01021183468401432,-0.011019987985491753,0.025971973314881325
1782891177658536400,3.715536376953125,-0.004786176607012749,-0.014803807251155376,0.02330748178064823
1782891177668558300,3.725558349609375,-0.0006207909900695086,-0.015714924782514572,0.016219545155763626
1782891177678580500,3.73558056640625,-0.0018160177860409021,-0.006550986785441637,0.013648263178765774
1782891177688602400,3.745602294921875,-0.0033729812130331993,-0.006934132426977158,0.00531502952799201
1782891177698624300,3.755624267578125,-0.004514412023127079,-0.007510174065828323,0.0002544908784329891
1782891177708646700,3.765646728515625,-0.007396268658339977,-0.00756814843043685,-0.0080667519941926
1782891177718668500,3.77566845703125,-0.007633289322257042,-0.007963893935084343,-0.008974091149866581
1782891177728690400,3.7856904296875,-0.011261854320764542,-0.005918652750551701,-0.001261311350390315
1782891177738712600,3.795712646484375,-0.013824880123138428,-0.008583411574363708,0.007225117180496454
1782891177748734500,3.805734375,-0.01049252413213253,-0.013929691165685654,0.01638939045369625
1782891177758757400,3.81575732421875,-0.009144165553152561,-0.02106723003089428,0.019252020865678787
1782891177768779500,3.825779541015625,-0.00882645882666111,-0.025668172165751457,0.01300637423992157
1782891177778801400,3.835801513671875,-0.009490118362009525,-0.015411008149385452,0.00008604873437434435
1782891177788823300,3.8458232421875,-0.010243461467325687,-0.012159770354628563,-0.018181173130869865
1782891177798845400,3.855845458984375,-0.01569868065416813,-0.008370358496904373,-0.01676117442548275
1782891177808867300,3.865867431640625,-0.015387767925858498,-0.018458113074302673,-0.012119954451918602
1782891177818889500,3.875889404296875,-0.016269007697701454,-0.03154408559203148,0.0005588229978457093
1782891177828911600,3.88591162109375,-0.016390860080718994,-0.042731788009405136,0.011177769862115383
1782891177838933500,3.89593359375,-0.01254658866673708,-0.045255668461322784,0.025963107123970985
1782891177848955400,3.905955322265625,-0.005945672281086445,-0.05096302181482315,0.02208714559674263
1782891177858977500,3.9159775390625,-0.0025357608683407307,-0.051531076431274414,0.021756647154688835
1782891177868999400,3.92599951171875,-0.0028954828158020973,-0.051659855991601944,0.022859133780002594
1782891177879021300,3.936021240234375,0.0003277411451563239,-0.05042069032788277,0.026518050581216812
1782891177889043500,3.94604345703125,0.005603138357400894,-0.05032453313469887,0.029838815331459045
1782891177899065600,3.956065673828125,0.0063458941876888275,-0.04130467027425766,0.029670236632227898
1782891177909087500,3.96608740234375,0.012429475784301758,-0.027132093906402588,0.020527202636003494
1782891177919107300,3.976107421875,0.010027837008237839,-0.006087794899940491,0.005248114001005888
1782891177929129500,3.98612939453125,0.012023616582155228,0.014141108840703964,-0.00954920519143343
1782891177939151600,3.996151611328125,0.009878973476588726,0.029309676960110664,-0.024224288761615753
1782891177949173500,4.006173583984375,0.00787182804197073,0.03597415238618851,-0.027348505333065987
1782891177959195400,4.0161953125,0.002844046102836728,0.04543875902891159,-0.02555832825601101
1782891177969217500,4.026217529296875,-0.000675853923894465,0.04085865616798401,-0.019053291529417038
1782891177979239400,4.036239501953125,-0.005696178879588842,0.042104482650756836,-0.013914454728364944
1782891177989261300,4.04626123046875,-0.01629723608493805,0.04216954857110977,-0.008503913879394531
1782891177999283500,4.056283447265625,-0.02821381762623787,0.037450160831213,-0.004380541853606701
1782891178009305600,4.0663056640625,-0.033741194754838943,0.031675759702920914,-0.003069463884457946
1782891178019327500,4.076327392578125,-0.031341154128313065,0.026639722287654877,-0.002915799617767334
1782891178029349400,4.086349365234375,-0.036706700921058655,0.028049152344465256,0.00020655395928770304
1782891178039372500,4.09637255859375,-0.036295242607593536,0.030016962438821793,-0.005637220572680235
1782891178049394400,4.10639453125,-0.03341404348611832,0.033407315611839294,-0.012576554901897907
1782891178059416600,4.11641650390625,-0.03194264695048332,0.0350094735622406,-0.018721798434853554
1782891178069438500,4.1264384765625,-0.025405047461390495,0.035079363733530045,-0.023181593045592308
1782891178079460400,4.13646044921875,-0.02230379544198513,0.03931911662220955,-0.02801629528403282
1782891178089482500,4.146482421875,-0.013482831418514252,0.045119013637304306,-0.02721255272626877
1782891178099504400,4.15650439453125,-0.004846998956054449,0.04593260958790779,-0.026416799053549767
1782891178109526300,4.1665263671875,0.001547540188767016,0.0455259308218956,-0.020696397870779037
1782891178119548400,4.17654833984375,0.0030311872251331806,0.03915804624557495,-0.01144937053322792
1782891178129570600,4.186570556640625,0.005123107228428125,0.024431630969047546,-0.005926771089434624
1782891178139592400,4.196592529296875,0.009172976948320866,0.014826673083007336,0.0026693802792578936
1782891178149614300,4.2066142578125,0.004324957728385925,0.007281937636435032,0.012345177121460438
1782891178159636500,4.216636474609375,0.0011198434513062239,0.00022695725783705711,0.017840875312685966
1782891178169658400,4.226658447265625,-0.006689948495477438,0.003964853938668966,0.014802806079387665
1782891178179680300,4.23668017578125,-0.012664750218391418,0.010090922936797142,0.011141227558255196
1782891178189702400,4.246702392578125,-0.015444706194102764,0.014272322878241539,0.0013603598345071077
1782891178199724500,4.256724609375,-0.01978379301726818,0.017742954194545746,-0.004999535158276558
1782891178209746400,4.266746337890625,-0.01703798584640026,0.02473406493663788,-0.008142652921378613
1782891178219768600,4.2767685546875,-0.011971320025622845,0.02522541955113411,-0.014881515875458717
1782891178229790000,4.2867900390625,-0.006044681649655104,0.026424959301948547,-0.016230221837759018
1782891178239811800,4.296811767578125,-0.00613043550401926,0.021053897216916084,-0.013583838008344173
1782891178249834000,4.306833984375,-0.00039102486334741116,0.011975509114563465,-0.0004576349747367203
1782891178259856000,4.31685595703125,-0.0021977131254971027,0.008472386747598648,0.00843172986060381
1782891178269878000,4.3268779296875,-0.0007022838108241558,0.009016254916787148,0.020622549578547478
1782891178279901000,4.33690087890625,0.004779034294188023,0.01477693859487772,0.022643355652689934
1782891178289923000,4.346923095703125,0.0056703947484493256,0.01931709423661232,0.02034318447113037
1782891178299946000,4.356946044921875,0.011474753729999065,0.024062316864728928,0.01223732065409422
1782891178309968000,4.3669677734375,0.018333733081817627,0.02080347202718258,-0.0006198877817951143
1782891178319990000,4.376989990234375,0.018265556544065475,0.016864124685525894,-0.012946062721312046
1782891178330012200,4.38701220703125,0.017214253544807434,0.016737056896090508,-0.019217144697904587
1782891178340034000,4.397033935546875,0.017803344875574112,0.01693146862089634,-0.018071185797452927
1782891178350056000,4.407055908203125,0.012616313993930817,0.012388981878757477,-0.010908079333603382
1782891178360078000,4.417078125,0.009156335145235062,0.005437864921987057,0.007004075217992067
1782891178370100000,4.427099853515625,0.00281652994453907,-0.007295538671314716,0.021831084042787552
1782891178380123000,4.437122802734375,0.0065327053889632225,-0.027639426290988922,0.03379879891872406
1782891178390145000,4.44714501953125,-0.0012535497080534697,-0.035290688276290894,0.04316194728016853
1782891178400167000,4.4571669921875,-0.00935914646834135,-0.03341102972626686,0.040525417774915695
1782891178410188800,4.467188720703125,-0.009036509320139885,-0.028502725064754486,0.030558139085769653
1782891178420211200,4.477211181640625,-0.011628563515841961,-0.020364103838801384,0.02198329195380211
1782891178430233000,4.487233154296875,-0.015002982690930367,-0.014709830284118652,0.012391318567097187
1782891178440255000,4.4972548828125,-0.01501869410276413,-0.011230677366256714,-0.002219581976532936
1782891178450277000,4.507277099609375,-0.010691211558878422,-0.003927257377654314,-0.008039257489144802
1782891178460299000,4.517299072265625,-0.011540492996573448,-0.002089410088956356,-0.01241722796112299
1782891178470321000,4.52732080078125,-0.010114701464772224,-0.003483358770608902,-0.00960060115903616
1782891178480342800,4.5373427734375,-0.0050427112728357315,0.0015556085854768753,-0.006738502532243729
1782891178490365000,4.547364990234375,-0.00032325880602002144,0.008704115636646748,-0.010967402718961239
1782891178500387000,4.557386962890625,0.0013289663475006819,0.011806164868175983,-0.013987960293889046
1782891178510409000,4.567408935546875,0.00674235075712204,0.012702589854598045,-0.019311632961034775
1782891178520431000,4.57743115234375,0.011311535723507404,0.011148635298013687,-0.01868605613708496
1782891178530453000,4.587452880859375,0.02001563273370266,0.0019168327562510967,-0.008662504144012928
1782891178540475000,4.597474853515625,0.022448962554335594,-0.007055356632918119,0.0013179582310840487
1782891178550497000,4.6074970703125,0.02360445261001587,-0.012734531424939632,0.01168624497950077
1782891178560519000,4.617518798828125,0.024707267060875893,-0.017227817326784134,0.018278367817401886
1782891178570540800,4.627540771484375,0.02516205608844757,-0.01596858911216259,0.016688257455825806
1782891178580563000,4.63756298828125,0.02516392059624195,-0.0077205137349665165,0.010264979675412178
1782891178590585000,4.647585205078125,0.024304792284965515,0.0043354155495762825,-0.00373711995780468
1782891178600607000,4.65760693359375,0.022256288677453995,0.01443145889788866,-0.016778619959950447
1782891178610630100,4.667630126953125,0.023745639249682426,0.01818775199353695,-0.028494542464613914
1782891178620652000,4.677652099609375,0.026611201465129852,0.022567586973309517,-0.03161363676190376
1782891178630674000,4.687673828125,0.02927992306649685,0.018623191863298416,-0.03241517022252083
1782891178640696000,4.697696044921875,0.023362645879387856,0.010478179901838303,-0.028373287990689278
1782891178650718000,4.707718017578125,0.015680130571126938,0.009482908993959427,-0.02488129213452339
1782891178660739800,4.71773974609375,0.009452061727643013,0.004761124029755592,-0.025618720799684525
1782891178670762000,4.727761962890625,0.0013110451400279999,0.0013972856104373932,-0.02289191260933876
1782891178680784000,4.737783935546875,-0.0008879269007593393,-0.004426781553775072,-0.01571975275874138
1782891178690806000,4.747805908203125,-0.0014164214953780174,-0.01230950653553009,-0.0040288702584803104
1782891178700828200,4.757828125,0.004303249530494213,-0.01236729696393013,0.004239711910486221
1782891178710850000,4.76785009765625,0.0078479815274477,-0.008643615990877151,0.006838357541710138
1782891178720872000,4.777871826171875,0.006918804720044136,0.0019373898394405842,0.003921663388609886
1782891178730894000,4.78789404296875,0.00528474198654294,0.0060809217393398285,-0.00631826464086771
1782891178740916000,4.797916015625,0.004178731236606836,0.0035101724788546562,-0.023570753633975983
1782891178750937900,4.807937744140625,0.008439268916845322,0.008080020546913147,-0.03202175721526146
1782891178760959700,4.817959716796875,0.004416563548147678,0.007951922714710236,-0.034402623772621155
1782891178770982100,4.827982177734375,0.008574902079999447,0.0017613209784030914,-0.023139113560318947
1782891178781004000,4.838004150390625,0.008771710097789764,0.006253806874155998,-0.011517077684402466
1782891178791026000,4.84802587890625,0.009692639112472534,0.010430509224534035,0.0017372093861922622
1782891178801048000,4.858048095703125,0.006553571205586195,0.016552051529288292,0.0036909044720232487
1782891178811070000,4.868070068359375,-0.0019746916368603706,0.023614289239048958,0.0015150968683883548
1782891178821091800,4.878091796875,-0.0065100546926259995,0.026795167475938797,-0.006657345686107874
1782891178831114000,4.888114013671875,-0.00958067923784256,0.021546078845858574,-0.01197834126651287
1782891178841137000,4.898136962890625,-0.010496807284653187,0.020595597103238106,-0.01618746668100357
1782891178851159000,4.908158935546875,-0.01370718888938427,0.02816295437514782,-0.022872338071465492
1782891178861181000,4.918180908203125,-0.01328427903354168,0.03743874281644821,-0.03237183392047882
1782891178871203000,4.928203125,-0.015357867814600468,0.038439106196165085,-0.031251899898052216
1782891178881225000,4.938224853515625,-0.015623918734490871,0.031645383685827255,-0.025311721488833427
1782891178891247000,4.9482470703125,-0.021305836737155914,0.02023421972990036,-0.012470690533518791
1782891178901269000,4.95826904296875,-0.02597568929195404,0.011097182519733906,-0.007961425930261612
1782891178911291000,4.968290771484375,-0.03195483237504959,0.00781119242310524,-0.007800242863595486
1782891178921313000,4.97831298828125,-0.02699975296854973,0.010707113891839981,-0.009492149576544762
1782891178931335000,4.9883349609375,-0.02024722285568714,0.019039861857891083,-0.014023046009242535
1782891178941356800,4.998356689453125,-0.016890307888388634,0.0175761878490448,-0.013153789564967155
1782891178951379000,5.00837890625,-0.01383196096867323,0.008152062073349953,-0.009325772523880005
1782891178961401000,5.018401123046875,-0.010838568210601807,0.004767983220517635,-0.005555269308388233
1782891178971423000,5.028423095703125,-0.010325033217668533,0.008523753844201565,-0.0073079559952020645
1782891178981445000,5.038445068359375,-0.008753768168389797,0.011940056458115578,-0.013337618671357632
1782891178991467000,5.048467041015625,-0.002874437253922224,0.01923435367643833,-0.018593765795230865
1782891179001489000,5.058489013671875,0.0015027341432869434,0.031295545399188995,-0.021005524322390556
1782891179011511000,5.068510986328125,0.0047767749056220055,0.03260084241628647,-0.02379884384572506
1782891179021533000,5.078532958984375,0.009222122840583324,0.023313868790864944,-0.02337726391851902
1782891179031554800,5.088554931640625,0.00874568335711956,0.019928457215428352,-0.017348933964967728
1782891179041577000,5.098576904296875,0.012939362786710262,0.015480712056159973,-0.017810193821787834
1782891179051599000,5.10859912109375,0.016464516520500183,0.019357359036803246,-0.01883091777563095
1782891179061622000,5.1186220703125,0.018355628475546837,0.030070191249251366,-0.024145521223545074
1782891179071644200,5.12864404296875,0.016572706401348114,0.035902563482522964,-0.03143918886780739
1782891179081666000,5.138666015625,0.015079738572239876,0.0310036800801754,-0.03242668882012367
1782891179091688000,5.14868798828125,0.015045499429106712,0.017607679590582848,-0.02600887417793274
1782891179101710000,5.1587099609375,0.02075478434562683,0.0014486843720078468,-0.009134819731116295
1782891179111732000,5.16873193359375,0.01924610324203968,-0.008262799121439457,0.0015228840056806803
1782891179121753900,5.17875390625,0.01925869844853878,-0.014071503654122353,0.0070451535284519196
1782891179131776000,5.18877587890625,0.021334892138838768,-0.015554152429103851,0.012279327027499676
1782891179141798100,5.198798095703125,0.01894017681479454,-0.008038445375859737,0.017079941928386688
1782891179151820000,5.208820068359375,0.016868965700268745,-0.0037479419261217117,0.022227361798286438
1782891179161842000,5.218842041015625,0.01895155757665634,0.0023962371051311493,0.024244975298643112
1782891179171864000,5.228864013671875,0.019664611667394638,0.009885881096124649,0.016393570229411125
1782891179181886000,5.238885986328125,0.014745219610631466,0.01916060596704483,0.0012649508425965905
1782891179191907800,5.248907958984375,0.017223259434103966,0.023480797186493874,-0.0194769985973835
1782891179201930000,5.258929931640625,0.018232066184282303,0.025156989693641663,-0.04229682683944702
1782891179211951900,5.268951904296875,0.019940048456192017,0.021910902112722397,-0.05174347385764122
1782891179221974000,5.27897412109375,0.016377536579966545,0.011066775768995285,-0.04989124462008476
1782891179231996000,5.288995849609375,0.009099400602281094,-0.008919784799218178,-0.038567740470170975
1782891179242017800,5.299017822265625,0.010686644352972507,-0.031649064272642136,-0.005978105124086142
1782891179252040000,5.3090400390625,0.011276789009571075,-0.045990053564310074,0.02583467960357666
1782891179262061800,5.319061767578125,0.01187307108193636,-0.05204581469297409,0.04656871780753136
1782891179272083700,5.329083740234375,0.003808226203545928,-0.05001135915517807,0.055301494896411896
1782891179282105900,5.33910595703125,-0.0012824060395359993,-0.037827931344509125,0.044281866401433945
1782891179292128800,5.349128662109375,-0.003364387433975935,-0.025783337652683258,0.025548063218593597
1782891179302151000,5.35915087890625,-0.004453619942069054,-0.008548690937459469,0.0050209518522024155
1782891179312172800,5.3691728515625,-0.003215665929019451,-0.004041587933897972,-0.010729390196502209
1782891179322194700,5.379194580078125,0.0030795144848525524,-0.0018127881921827793,-0.023960772901773453
1782891179332216800,5.389216796875,0.0011143804294988513,0.004648969974368811,-0.0295904241502285
1782891179342239000,5.399239013671875,0.0032656819093972445,0.003958944696933031,-0.029636230319738388
1782891179352260900,5.4092607421875,0.0025788461789488792,0.004317873157560825,-0.018325254321098328
1782891179362282800,5.41928271484375,0.008442860096693039,-0.0023200553841888905,-0.01376885175704956
1782891179372305000,5.429304931640625,0.010329716838896275,-0.0069922395050525665,0.002294805832207203
1782891179382326800,5.439326904296875,0.013003530912101269,-0.018484845757484436,0.014414052478969097
1782891179392348700,5.4493486328125,0.015018542297184467,-0.022121872752904892,0.02844271808862686
1782891179402370800,5.459370849609375,0.016793806105852127,-0.0254881102591753,0.028401173651218414
1782891179412393000,5.46939306640625,0.017417525872588158,-0.019636545330286026,0.020882006734609604
1782891179422414800,5.479414794921875,0.02321762405335903,-0.016554735600948334,0.010585960000753403
1782891179432437000,5.48943701171875,0.015406046994030476,-0.0197288915514946,-0.002290156204253435
1782891179442459000,5.499458984375,0.0062213377095758915,-0.02768215537071228,-0.009629561565816402
1782891179452480800,5.509480712890625,0.0005803517415188253,-0.030984174460172653,-0.009150594472885132
1782891179462503000,5.5195029296875,-0.0011624208418652415,-0.034659069031476974,0.0013997844653204083
1782891179472524800,5.52952490234375,0.004311031196266413,-0.03912169486284256,0.015036629512906075
1782891179482546700,5.539546630859375,0.007456757128238678,-0.0328824408352375,0.02505570836365223
1782891179492569000,5.549569091796875,0.006375779863446951,-0.02047717198729515,0.03382603079080582
1782891179502591000,5.559591064453125,0.0030718622729182243,-0.012570511549711227,0.03533071652054787
1782891179512612900,5.56961279296875,0.0015884815948083997,-0.004574637394398451,0.028831005096435547
1782891179522636000,5.579635986328125,-0.00044377660378813744,0.006350181996822357,0.007734508719295263
1782891179532658000,5.589657958984375,-0.002060834551230073,0.020855486392974854,-0.012949192896485329
1782891179542679800,5.5996796875,0.006179252173751593,0.04165451228618622,-0.03118785284459591
1782891179552702000,5.609701904296875,0.010453351773321629,0.055837638676166534,-0.04143862798810005
1782891179562723800,5.619723876953125,0.010735646821558475,0.06079671159386635,-0.046442706137895584
1782891179572745700,5.629745849609375,0.007450927514582872,0.058312445878982544,-0.04250149056315422
1782891179582767900,5.639767822265625,0.007277822121977806,0.04542328044772148,-0.032168690115213394
1782891179592790000,5.6497900390625,0.008184794336557388,0.03961054980754852,-0.023492056876420975
1782891179602812000,5.65981201171875,0.007643639575690031,0.034634970128536224,-0.019990798085927963
1782891179612833800,5.669833740234375,0.005815716926008463,0.031183093786239624,-0.012054109945893288
1782891179622856000,5.67985595703125,0.004109696485102177,0.021453235298395157,-0.008887344971299171
1782891179632877800,5.6898779296875,0.00019711616914719343,0.007445173338055611,-0.0030178697779774666
1782891179642899700,5.699899658203125,-0.004069534130394459,-0.0039917719550430775,0.0030432185158133507
1782891179652921900,5.709921875,-0.00772165646776557,-0.012965393252670765,0.008837325498461723
1782891179662943700,5.71994384765625,-0.008662551641464233,-0.01610366255044937,0.011159069836139679
1782891179672966000,5.7299658203125,-0.005479743238538504,-0.018906056880950928,0.015374520793557167
1782891179682988000,5.739988037109375,0.0005991885554976761,-0.0231868214905262,0.019798563793301582
1782891179693010000,5.750010009765625,0.00707652885466814,-0.02187521383166313,0.027706021443009377
1782891179703031800,5.76003173828125,0.01206462923437357,-0.015586426481604576,0.0298306904733181
1782891179713054000,5.770053955078125,0.005844550672918558,-0.007048864383250475,0.021250518038868904
1782891179723075800,5.780075927734375,0.003812292590737343,0.005923393648117781,0.0017862737877294421
1782891179733097700,5.79009765625,0.0016765021719038486,0.016447989270091057,-0.016703853383660316
1782891179743121000,5.800120849609375,0.004971364978700876,0.02140626311302185,-0.034870605915784836
1782891179753142800,5.810142822265625,-0.0006915017729625106,0.01596693880856037,-0.036709848791360855
1782891179763164700,5.82016455078125,0.0011463456321507692,0.007544158957898617,-0.029625842347741127
1782891179773186800,5.830186767578125,0.001319159404374659,0.0011488483287394047,-0.01540643721818924
1782891179783209000,5.840208984375,-0.00445510633289814,-0.0038296650163829327,0.001935801119543612
1782891179793230800,5.85023095703125,-0.009995787404477596,-0.005563120823353529,0.01591794192790985
1782891179803253000,5.8602529296875,-0.015167911536991596,-0.009218841791152954,0.02048446424305439
1782891179813275000,5.87027490234375,-0.012983199208974838,-0.012906487099826336,0.0216478630900383
1782891179823296800,5.880296875,-0.01365245133638382,-0.004804352298378944,0.01714498922228813
1782891179833319000,5.89031884765625,-0.009214495308697224,-0.003033034037798643,0.013018088415265083
1782891179843340800,5.9003408203125,-0.00892101414501667,0.004359101876616478,0.005947129335254431
1782891179853362700,5.91036279296875,-0.0029589738696813583,0.008853118866682053,-0.0020279677119106054
1782891179863385000,5.920385009765625,0.0010687910253182054,0.012222817167639732,-0.00885791052132845
1782891179873407000,5.930406982421875,0.004102123435586691,0.017259852960705757,-0.01496853493154049
1782891179883428900,5.940428955078125,0.008397003635764122,0.012986810877919197,-0.02412101998925209
1782891179893450800,5.95045068359375,0.007532397285103798,0.008728183805942535,-0.030624862760305405
1782891179903473000,5.960472900390625,0.001379429828375578,0.009262414649128914,-0.031474411487579346
1782891179913494800,5.970494873046875,-0.007130980491638184,0.004954353906214237,-0.02568363957107067
1782891179923516700,5.9805166015625,-0.007181846536695957,-0.0044553931802511215,-0.0069775958545506
1782891179933538800,5.990538818359375,-0.007108206860721111,-0.012048964388668537,0.012168802320957184
1782891179943561000,6.00056103515625,-0.013735217042267323,-0.01540934108197689,0.025786343961954117
1782891179953582800,6.010582763671875,-0.01647234335541725,-0.01710672490298748,0.03420852869749069
1782891179963605000,6.02060498046875,-0.02019783854484558,-0.016218028962612152,0.025547660887241364
1782891179973628000,6.0306279296875,-0.021561382338404655,-0.01654166728258133,0.013500316068530083
1782891179983650000,6.040650146484375,-0.01816532015800476,-0.011262482963502407,0.010282418690621853
1782891179993672000,6.050671875,-0.015484717674553394,-0.012950293719768524,0.005689661949872971
1782891180003693800,6.06069384765625,-0.01299785915762186,-0.014328479766845703,0.0038281125016510487
1782891180013715700,6.0707158203125,-0.009743476286530495,-0.015522374771535397,0.009215953759849072
1782891180023737900,6.08073779296875,-0.009648401290178299,-0.014941006898880005,0.006492605432868004
1782891180033759700,6.090759765625,-0.008823874406516552,-0.009455829858779907,-0.00026249594520777464
1782891180043781600,6.10078173828125,-0.0038181967101991177,-0.010608179494738579,0.0017945297295227647
1782891180053804000,6.110803955078125,0.0020797187462449074,-0.0033705905079841614,0.01018262468278408
1782891180063826000,6.120825927734375,0.0021399063989520073,-0.00010315841063857079,0.01715398207306862
1782891180073847800,6.130847900390625,0.0036872676573693752,0.005366225726902485,0.012972486205399036
1782891180083870000,6.140869873046875,0.0002379413926973939,0.009711438789963722,0.0022077220492064953
1782891180093891800,6.150891845703125,0.002857563551515341,0.015550053678452969,-0.003313675755634904
1782891180103913700,6.160913818359375,-0.00016112951561808586,0.013499951921403408,-0.011094367131590843
1782891180113936000,6.170935791015625,-0.0007581530371680856,0.008878019638359547,-0.014056403189897537
1782891180123957800,6.180957763671875,-0.006549197249114513,0.0076132845133543015,-0.00871277041733265
1782891180133980000,6.19097998046875,-0.0039888909086585045,0.0031495774164795876,0.0012464550090953708
1782891180144002000,6.201001953125,-0.006266959011554718,-0.0015887189656496048,0.008918755687773228
1782891180154024000,6.21102392578125,-0.005447849631309509,-0.0021015601232647896,0.012180924415588379
1782891180164045800,6.2210458984375,-0.0035921591334044933,0.004386699292808771,0.007631979417055845
1782891180174068000,6.23106787109375,-0.002385214902460575,0.0097777359187603,-0.00039398891385644674
1782891180184089900,6.24108984375,0.00044892128789797425,0.003646074328571558,-0.002015587640926242
1782891180194111700,6.25111181640625,-0.0008909647585824132,0.00040109502151608467,-0.004854180850088596
1782891180204135000,6.261135009765625,-0.004473715554922819,-0.005296205636113882,0.006638956721872091
1782891180214156800,6.27115673828125,-0.003180088708177209,-0.009727072902023792,0.012577672488987446
1782891180224178700,6.2811787109375,-0.0031499953474849463,-0.006883082911372185,0.024799717590212822
1782891180234200800,6.291200927734375,-0.00048696319572627544,-0.002621060237288475,0.02463260479271412
1782891180244223000,6.301222900390625,-0.002691261935979128,-0.004434140399098396,0.01766231283545494
1782891180254244900,6.311244873046875,-0.002484744880348444,-0.0030537908896803856,0.011322257108986378
1782891180264267000,6.32126708984375,-0.0020466549322009087,0.0005164430476725101,0.007213798351585865
1782891180274289000,6.331288818359375,0.0006923278560861945,0.0010145390406250954,0.006128355860710144
1782891180284310800,6.341310791015625,-0.0025540655478835106,0.004647090099751949,0.004011675715446472
1782891180294332700,6.351332763671875,-0.004892598371952772,0.00847765151411295,0.0005266547668725252
1782891180304354800,6.361354736328125,-0.008583740331232548,0.013484926894307137,-0.004022556822746992
1782891180314376700,6.371376708984375,-0.010982191190123558,0.017371149733662605,-0.01133214682340622
1782891180324398800,6.38139892578125,-0.013619253411889076,0.016350358724594116,-0.00995023176074028
1782891180334421000,6.3914208984375,-0.01292954571545124,0.01564849354326725,-0.0017095294315367937
1782891180344443000,6.40144287109375,-0.01259798277169466,0.014173634350299835,0.0030721761286258698
1782891180354464800,6.41146484375,-0.01968471333384514,0.018836311995983124,0.005029670428484678
1782891180364487000,6.42148681640625,-0.01758134737610817,0.02061690203845501,0.004082117695361376
1782891180374508800,6.4315087890625,-0.02091323956847191,0.018323523923754692,0.0021238881163299084
1782891180384530700,6.44153076171875,-0.02484007179737091,0.011974280700087547,-0.003939863294363022
1782891180394552800,6.451552734375,-0.02360902726650238,0.0075681814923882484,-0.007028467021882534
1782891180404575000,6.461574951171875,-0.024528084322810173,0.009841455146670341,-0.003023605328053236
1782891180414596900,6.471596923828125,-0.026542896404862404,0.009172368794679642,-0.0029153453651815653
1782891180424619000,6.481618896484375,-0.02971472032368183,0.01651044376194477,-0.011491256766021252
1782891180434642000,6.491641845703125,-0.02657950669527054,0.029211822897195816,-0.020507248118519783
1782891180444663800,6.501663818359375,-0.022993825376033783,0.036308612674474716,-0.04054061323404312
1782891180454686000,6.51168603515625,-0.015606138855218887,0.03949020802974701,-0.06523163616657257
1782891180464707800,6.521707763671875,-0.013625546358525753,0.053673937916755676,-0.07995279133319855
1782891180474729700,6.531729736328125,-0.010268308222293854,0.07013837993144989,-0.08880361169576645
1782891180484752000,6.541751953125,-0.0023177065886557102,0.0765017420053482,-0.08701423555612564
1782891180494773800,6.551773681640625,0.0007482676883228123,0.08296333253383636,-0.07570844143629074
1782891180504796000,6.5617958984375,0.0028577574994415045,0.07197007536888123,-0.061736173927783966
1782891180514818000,6.571818115234375,-0.00463778804987669,0.05788123607635498,-0.04101299121975899
1782891180524840000,6.58183984375,-0.004641249775886536,0.051880866289138794,-0.016515903174877167
1782891180534861800,6.59186181640625,-0.0083553371950984,0.04564522206783295,0.003168925177305937
1782891180544884000,6.601884033203125,-0.007885555736720562,0.035765159875154495,0.019582252949476242
1782891180554905900,6.61190576171875,-0.006446417421102524,0.02335556596517563,0.02477593719959259
1782891180564927700,6.621927734375,-0.004191785119473934,0.012945536524057388,0.021630743518471718
1782891180574949600,6.63194970703125,-0.006164225284010172,0.005824938416481018,0.014878178015351295
1782891180584972000,6.641971923828125,-0.008105137385427952,0.0016759997233748436,0.0005253377603366971
1782891180594994000,6.651993896484375,-0.012396919541060925,-0.0002549039199948311,-0.010950169526040554
1782891180605015800,6.662015869140625,-0.014870996586978436,-0.010331239551305771,-0.01841341145336628
1782891180615038000,6.672037841796875,-0.017605964094400406,-0.014192445203661919,-0.019607361406087875
1782891180625059800,6.682059814453125,-0.017377465963363647,-0.02009294554591179,-0.004518689122051001
1782891180635081700,6.692081787109375,-0.01811458356678486,-0.02973267063498497,0.010863921605050564
1782891180645103900,6.702103759765625,-0.015483382157981396,-0.03207492083311081,0.023097418248653412
1782891180655125800,6.712125732421875,-0.014012366533279419,-0.03206396847963333,0.035623203963041306
1782891180665149000,6.72214892578125,-0.014604386873543262,-0.030311344191432,0.037179287523031235
1782891180675170800,6.7321708984375,-0.014426578767597675,-0.024040445685386658,0.03409939631819725
1782891180685192700,6.742192626953125,-0.014866000972688198,-0.011381641030311584,0.021602248772978783
1782891180695214800,6.75221484375,-0.009027410298585892,0.0011948347091674805,-0.002518927911296487
1782891180705237000,6.762237060546875,-0.0057394723407924175,0.013115409761667252,-0.019358627498149872
1782891180715259000,6.7722587890625,-0.0041788662783801556,0.015371309593319893,-0.030144967138767242
1782891180725280800,6.78228076171875,-0.008102500811219215,0.013457827270030975,-0.02939688414335251
1782891180735303000,6.792302978515625,-0.011321588419377804,0.01472492329776287,-0.025728775188326836
1782891180745324800,6.80232470703125,-0.009342326782643795,0.011868150904774666,-0.020952928811311722
1782891180755346700,6.8123466796875,-0.006997132673859596,0.009430425241589546,-0.012191923335194588
1782891180765368800,6.822368896484375,-0.0029965327121317387,0.005728365853428841,-0.009733559563755989
1782891180775391000,6.832390869140625,0.00012347660958766937,0.0019823312759399414,-0.009441548958420753
1782891180785412900,6.842412841796875,0.002646289300173521,-0.01138913445174694,-0.009458858519792557
1782891180795435000,6.85243505859375,0.0040559652261435986,-0.028804825618863106,-0.0024510850198566914
1782891180805457000,6.862456787109375,0.006793694570660591,-0.03279610723257065,0.0042997621931135654
1782891180815478800,6.872478759765625,0.009809931740164757,-0.04187267646193504,0.008225064724683762
1782891180825501000,6.8825009765625,0.014616139233112335,-0.04358482360839844,0.006756598595529795
1782891180835522800,6.892522705078125,0.020073626190423965,-0.04596578702330589,0.008448905311524868
1782891180845544700,6.902544677734375,0.028450865298509598,-0.050004471093416214,0.010769584216177464
1782891180855566800,6.91256689453125,0.03525496646761894,-0.062455881386995316,0.01290437113493681
1782891180865589000,6.922589111328125,0.044112641364336014,-0.06195041164755821,0.013739005662500858
1782891180875611000,6.93261083984375,0.05223822221159935,-0.046284303069114685,0.016298837959766388
1782891180885632800,6.9426328125,0.0505569651722908,-0.042911142110824585,0.03977300599217415
1782891180895656000,6.952656005859375,0.025310447439551353,-0.022710995748639107,0.05228852108120918
1782891180905677800,6.962677734375,-0.020831480622291565,0.09833979606628418,0.08234602212905884
1782891180915700000,6.972699951171875,0.004324158653616905,0.04581548273563385,0.04067295417189598
1782891180925721900,6.982721923828125,0.016288941726088524,0.0049247732385993,0.015952695161104202
1782891180935743700,6.99274365234375,0.017260640859603882,0.021107159554958344,0.04353111609816551
1782891180945766000,7.002765869140625,0.025963852182030678,-0.0017792475409805775,0.08900565654039383
1782891180955787800,7.012787841796875,0.053558349609375,-0.030027568340301514,0.09688689559698105
1782891180965810000,7.022809814453125,0.11165786534547806,-0.03308700770139694,0.050282638520002365
1782891180975831800,7.032831787109375,0.11237434297800064,0.04856302961707115,0.004591518547385931
1782891180985854000,7.04285400390625,0.09265629947185516,0.13702978193759918,-0.0560007207095623
1782891180995875800,7.052875732421875,0.0744018629193306,0.19546879827976227,-0.10600044578313828
1782891181005897700,7.062897705078125,0.05288804695010185,0.23902027308940887,-0.11258058249950409
1782891181015919900,7.072919921875,0.04541820287704468,0.27209246158599854,-0.07044410705566406
1782891181025941800,7.082941650390625,0.05618403106927872,0.27606135606765747,-0.029432496055960655
1782891181035963600,7.092963623046875,0.062049493193626404,0.26668885350227356,-0.028040867298841476
1782891181045986000,7.102986083984375,0.04091304913163185,0.1996917426586151,-0.04621560871601105
1782891181056008000,7.113008056640625,0.032001059502363205,0.16282865405082703,-0.04177718237042427
1782891181066029800,7.12302978515625,0.052820853888988495,0.14867688715457916,-0.05032379552721977
1782891181076052000,7.133052001953125,0.08034394681453705,0.14341238141059875,-0.06693913042545319
1782891181086073900,7.143073974609375,0.072502002120018,0.1487078070640564,-0.09198004007339478
1782891181096095700,7.153095703125,0.05824002996087074,0.1658046841621399,-0.10796493291854858
1782891181106118000,7.163117919921875,0.020959505811333656,0.1627977043390274,-0.12527495622634888
1782891181116140800,7.173140869140625,-0.03821629658341408,0.11410310864448547,-0.14980916678905487
1782891181126162700,7.18316259765625,-0.11341677606105804,0.07515250891447067,-0.13233830034732819
1782891181136184800,7.193184814453125,-0.16132618486881256,0.012327928096055984,-0.06214490532875061
1782891181146207000,7.20320703125,-0.16970741748809814,-0.029354270547628403,0.06448707729578018
1782891181156228900,7.213228759765625,-0.13168933987617493,-0.06305627524852753,0.20796287059783936
1782891181166251000,7.2232509765625,-0.10103476792573929,-0.10422927886247635,0.31795942783355713
1782891181176273000,7.23327294921875,-0.10517238825559616,-0.1667064130306244,0.36214858293533325
1782891181186294800,7.243294677734375,-0.13515372574329376,-0.19875888526439667,0.374457448720932
1782891181196317000,7.25331689453125,-0.15357773005962372,-0.20596346259117126,0.3710440993309021
1782891181206338800,7.2633388671875,-0.14877524971961975,-0.19676543772220612,0.3511694371700287
1782891181216360700,7.273360595703125,-0.12431925535202026,-0.1648254543542862,0.31249454617500305
1782891181226382800,7.2833828125,-0.08670077472925186,-0.1324576735496521,0.23656436800956726
1782891181236405200,7.2934052734375,-0.07295571267604828,-0.10507523268461227,0.14479802548885345
1782891181246427600,7.303427734375,-0.04800882190465927,-0.07070580869913101,0.06877197325229645
1782891181256449500,7.313449462890625,-0.017848143354058266,-0.020087197422981262,0.007831241004168987
1782891181266471400,7.323471435546875,0.011437307111918926,0.000254292506724596,-0.040240947157144547
1782891181276493600,7.33349365234375,0.03013896569609642,0.004664185456931591,-0.07480917125940323
1782891181286515500,7.343515380859375,0.04133675992488861,0.005713203921914101,-0.09622311592102051
1782891181296537300,7.353537353515625,0.036577366292476654,0.00031179608777165413,-0.10940729081630707
1782891181306559500,7.3635595703125,0.022177118808031082,0.012012127786874771,-0.10223433375358582
1782891181316581400,7.373581298828125,0.00842948630452156,0.043379005044698715,-0.055623821914196014
1782891181326603500,7.383603515625,-0.0012295324122533202,0.03558100387454033,-0.0018695120234042406
1782891181336625700,7.393625732421875,0.0012303576804697514,0.02193857729434967,0.04704536497592926
1782891181346648600,7.403648681640625,0.006858948618173599,0.007069617975503206,0.07060129195451736
1782891181356670500,7.41367041015625,0.007029881700873375,-0.001880052499473095,0.06749983876943588
1782891181366692600,7.423692626953125,0.0032066479325294495,-0.020311523228883743,0.047194842249155045
1782891181376714500,7.433714599609375,0.0007300288416445255,-0.03037424571812153,0.020268548280000687
1782891181386736400,7.443736328125,-0.00006998470053076744,-0.0428820475935936,0.005445926915854216
1782891181396758500,7.453758544921875,0.006784459110349417,-0.04921530932188034,-0.0028133345767855644
1782891181406780400,7.463780517578125,0.0013031411217525601,-0.055007949471473694,-0.003875403432175517
1782891181416802300,7.47380224609375,0.0025584641844034195,-0.055316925048828125,0.004111206624656916
1782891181426824400,7.483824462890625,0.0049499827437102795,-0.05245828628540039,0.01251188199967146
1782891181436846600,7.4938466796875,0.00934168417006731,-0.0416005477309227,0.00226231524720788
1782891181446868500,7.503868408203125,-0.009878083132207394,-0.015116212889552116,-0.019857369363307953
1782891181456890600,7.513890625,-0.03414921090006828,-0.013699641451239586,-0.034168798476457596
1782891181466912500,7.52391259765625,-0.04282978177070618,-0.02191256359219551,-0.03064064309000969
1782891181476934400,7.533934326171875,-0.03148338198661804,-0.01680482178926468,-0.016955722123384476
1782891181486956500,7.54395654296875,-0.02184593304991722,-0.02687130495905876,-0.010108202695846558
1782891181496978400,7.553978515625,-0.02339196391403675,-0.03274229168891907,-0.011125462129712105
1782891181507000300,7.564000244140625,-0.021932551637291908,-0.03637830540537834,-0.01688135229051113
1782891181517022500,7.5740224609375,-0.023775320500135422,-0.027860820293426514,-0.033052198588848114
1782891181527044600,7.584044677734375,-0.025859776884317398,-0.010969188064336777,-0.04350457340478897
1782891181537066500,7.59406640625,-0.015519724227488041,0.0033962191082537174,-0.03289034590125084
1782891181547088400,7.60408837890625,0.0035810002591460943,0.010834427550435066,-0.021302932873368263
1782891181557110500,7.614110595703125,0.008971180766820908,0.014131970703601837,-0.014538167044520378
1782891181567132400,7.62413232421875,-0.0009799868566915393,0.008657043799757957,-0.026608413085341454
1782891181577154300,7.634154296875,-0.00771600566804409,0.007984081283211708,-0.035734470933675766
1782891181587177500,7.644177490234375,-0.00684328842908144,0.011766036972403526,-0.03932441398501396
1782891181597199400,7.654199462890625,0.01039890106767416,0.00927196815609932,-0.042625196278095245
1782891181607221200,7.66422119140625,0.0267493799328804,0.00025237351655960083,-0.0552416555583477
1782891181617243600,7.67424365234375,0.03420441225171089,-0.005536952987313271,-0.0686933621764183
1782891181627265500,7.684265625,0.03787344694137573,-0.00887069758027792,-0.07862641662359238
1782891181637287400,7.694287353515625,0.028810711577534676,-0.005224830470979214,-0.07377041131258011
1782891181647309600,7.7043095703125,0.018085628747940063,-0.018370725214481354,-0.05103473365306854
1782891181657331500,7.71433154296875,0.014854362234473228,-0.024080194532871246,-0.0054322886280715466
1782891181667353300,7.724353271484375,0.01872446946799755,-0.03553418442606926,0.05133432149887085
1782891181677375500,7.73437548828125,0.012587745673954487,-0.047125596553087234,0.0810360237956047
1782891181687397400,7.7443974609375,0.0038752667605876923,-0.04626227915287018,0.08466716855764389
1782891181697419500,7.75441943359375,-0.0017138168914243579,-0.04349733516573906,0.07557029277086258
1782891181707441700,7.764441650390625,0.0033472543582320213,-0.037985656410455704,0.06428434699773788
1782891181717463600,7.774463623046875,0.010318143293261528,-0.023970458656549454,0.04694310203194618
1782891181727485400,7.7844853515625,0.009201746433973312,-0.019381830468773842,0.028663964942097664
1782891181737507600,7.794507568359375,0.0125493248924613,-0.017808301374316216,0.011315329931676388
1782891181747529500,7.804529541015625,0.01642662100493908,-0.015596013516187668,-0.010589702054858208
1782891181757551400,7.81455126953125,0.020114775747060776,0.0018948456272482872,-0.028514571487903595
1782891181767573500,7.824573486328125,0.018966952338814735,0.01861576922237873,-0.04095712676644325
1782891181777595600,7.834595703125,0.02231733128428459,0.025626040995121002,-0.04709824547171593
1782891181787617500,7.844617431640625,0.030206946656107903,0.02862449362874031,-0.038061872124671936
1782891181797639400,7.854639404296875,0.03005349077284336,0.022494446486234665,-0.023257292807102203
1782891181807661600,7.86466162109375,0.027494726702570915,0.01256431732326746,-0.003730195574462414
1782891181817684500,7.8746845703125,0.020201586186885834,0.0052415733225643635,0.011852290481328964
1782891181827706600,7.88470654296875,0.011802243068814278,0.0023903935216367245,0.02254408411681652
1782891181837728500,7.894728515625,0.011124879121780396,0.001240139827132225,0.028096111491322517
1782891181847750400,7.90475048828125,0.009601817466318607,0.0011264230124652386,0.016593385487794876
1782891181857772500,7.9147724609375,0.015312140807509422,0.0018036691471934319,0.006018495187163353
1782891181867794400,7.92479443359375,0.0176426749676466,0.0013602524995803833,-0.002342765685170889
1782891181877816300,7.93481640625,0.015547680668532848,0.0017205593176186085,0.0008095633238554001
1782891181887838500,7.94483837890625,0.012056010775268078,-0.0029881761875003576,0.006722313351929188
1782891181897860600,7.954860595703125,0.010957085527479649,-0.004128391854465008,0.008152493275702
1782891181907882500,7.964882568359375,0.009773044846951962,-0.0013078381307423115,0.00035289337392896414
1782891181917902600,7.974902587890625,0.00395822711288929,0.0062596844509243965,-0.00970393791794777
1782891181927925500,7.984925537109375,-0.004668017849326134,0.0074280137196183205,-0.009755336679518223
1782891181937947400,7.994947509765625,-0.0203071441501379,0.00457623228430748,0.0029127951711416245
1782891181947969500,8.004969482421876,-0.028701694682240486,-0.01088687963783741,0.022150671109557152
1782891181957991400,8.014991455078125,-0.021497052162885666,-0.015965327620506287,0.04548608511686325
1782891181968013600,8.025013671875,-0.013765362091362476,-0.003345939563587308,0.05288221687078476
1782891181978035500,8.035035400390624,-0.014033334329724312,0.0068276189267635345,0.04217424616217613
1782891181988057300,8.045057373046875,-0.01203170232474804,0.005320269614458084,0.025894343852996826
1782891181998079500,8.05507958984375,-0.0055785393342375755,0.007014289498329163,0.005966906435787678
1782891182008101400,8.065101318359375,-0.0009510306408628821,0.02174609899520874,-0.023259954527020454
1782891182018123300,8.075123291015625,0.00036783155519515276,0.049456071108579636,-0.04722527787089348
1782891182028145700,8.085145751953124,-0.003059124108403921,0.06817036867141724,-0.061040692031383514
1782891182038167600,8.09516748046875,0.0037341138813644648,0.0678676888346672,-0.06415213644504547
1782891182048189400,8.105189453125,0.007885982282459736,0.05346585065126419,-0.06122159585356712
1782891182058211600,8.115211669921875,0.012918426655232906,0.03853606432676315,-0.06074262410402298
1782891182068233500,8.1252333984375,0.009109308011829853,0.02341357246041298,-0.05630047246813774
1782891182078255400,8.13525537109375,0.0028694109059870243,0.017798127606511116,-0.04642293229699135
1782891182088277500,8.145277587890625,0.0007996020722202957,0.013497922569513321,-0.03446480631828308
1782891182098299400,8.15529931640625,-0.008188573643565178,0.0025975373573601246,-0.019371874630451202
1782891182108321500,8.165321533203125,-0.005217817611992359,-0.008926227688789368,0.0017376724863424897
1782891182118343700,8.17534375,-0.005876410286873579,-0.020557783544063568,0.021643204614520073
1782891182128365600,8.185365478515624,0.0001585792051628232,-0.03584539145231247,0.030608471482992172
1782891182138387500,8.195387451171875,-0.0008397030178457499,-0.046953003853559494,0.030007261782884598
1782891182148409300,8.205409423828126,-0.002668761881068349,-0.03219935670495033,0.02508707158267498
1782891182158431500,8.215431396484375,0.007956905290484428,-0.01314915157854557,0.018977046012878418
1782891182168454400,8.225454345703126,0.013116512447595596,0.00558299059048295,0.007315596099942923
1782891182178476500,8.2354765625,0.018018784001469612,0.013226615265011787,-0.015474876388907433
1782891182188498400,8.24549853515625,0.019164741039276123,0.018764125183224678,-0.039079803973436356
1782891182198520300,8.255520263671874,0.025005923584103584,0.02104071155190468,-0.05352485179901123
1782891182208542500,8.26554248046875,0.02684536948800087,0.02922886610031128,-0.06085307523608208
1782891182218564600,8.275564697265626,0.031123138964176178,0.022101664915680885,-0.05846308544278145
1782891182228586500,8.28558642578125,0.03167228400707245,0.014468511566519737,-0.05867480859160423
1782891182238607600,8.295607666015625,0.029175102710723877,0.008240760304033756,-0.04135899990797043
1782891182248629800,8.305629638671874,0.024285005405545235,-0.00472191022709012,-0.022200221195816994
1782891182258651600,8.315651611328125,0.0167344119399786,-0.013154011219739914,-0.0011838852660730481
1782891182268673500,8.325673583984376,0.0015634478768333793,-0.017737045884132385,0.022738492116332054
1782891182278696000,8.335696044921875,-0.008379119448363781,-0.028371132910251617,0.04626639187335968
1782891182288717800,8.3457177734375,-0.011559199541807175,-0.03435525298118591,0.060196056962013245
1782891182298739700,8.35573974609375,-0.008507483638823032,-0.03802056238055229,0.06987558305263519
1782891182308761900,8.365761962890625,-0.005624458659440279,-0.03581596538424492,0.05485016107559204
1782891182318783700,8.37578369140625,-0.005421259440481663,-0.027665892615914345,0.032969094812870026
1782891182328805600,8.3858056640625,-0.00022483512293547392,-0.010542516596615314,0.00442074378952384
1782891182338827800,8.395827880859375,0.0021554981358349323,0.012240026146173477,-0.018405742943286896
1782891182348849700,8.405849609375,0.0046157618053257465,0.023360375314950943,-0.028412379324436188
1782891182358871800,8.415871826171875,-0.002091675763949752,0.024231228977441788,-0.025030430406332016
1782891182368893700,8.425893798828126,-0.015080906450748444,0.017270373180508614,-0.01561329048126936
1782891182378915800,8.435915771484375,-0.01770411990582943,0.011597840115427971,0.0003153427969664335
1782891182388937700,8.445937744140625,-0.012308879755437374,0.010986660607159138,0.011178180575370789
1782891182398961000,8.4559609375,-0.010189802385866642,0.01794416829943657,0.015351354144513607
1782891182408982800,8.465982666015625,-0.011694876477122307,0.02231677994132042,0.01453389786183834
1782891182419004700,8.476004638671874,-0.008398149162530899,0.014656729996204376,0.006289550103247166
1782891182429026800,8.48602685546875,-0.00695337587967515,0.016187049448490143,-0.0010461265919730067
1782891182439048700,8.496048583984376,-0.009004276245832443,0.01622406765818596,-0.015048228204250336
1782891182449070600,8.506070556640625,-0.008105152286589146,0.01567104458808899,-0.020744534209370613
1782891182459092700,8.5160927734375,-0.005954116582870483,0.012718664482235909,-0.014244290068745613
1782891182469115000,8.526114990234374,-0.014826188795268536,0.02584945037961006,-0.018938656896352768
1782891182479136800,8.53613671875,-0.016253642737865448,0.05190528556704521,-0.026458624750375748
1782891182489158700,8.54615869140625,-0.016498174518346786,0.06880978494882584,-0.02910519763827324
1782891182499180800,8.556180908203125,-0.01185894850641489,0.06226133555173874,-0.013528368435800076
1782891182509202700,8.56620263671875,-0.01150293555110693,0.04809579253196716,0.0030458858236670494
1782891182519224600,8.576224609375,-0.0111753661185503,0.03704553842544556,0.015850896015763283
1782891182529246700,8.586246826171875,-0.02118002437055111,0.021516170352697372,0.0234549418091774
1782891182539268600,8.5962685546875,-0.029867254197597504,0.0080227330327034,0.026911458000540733
1782891182549290800,8.606290771484375,-0.020592110231518745,0.002101023681461811,0.03571734577417374
1782891182559313000,8.61631298828125,-0.013669755309820175,0.00447123683989048,0.03297109156847
1782891182569334800,8.626334716796874,-0.018083276227116585,0.008270936086773872,0.017148055136203766
1782891182579356700,8.636356689453125,-0.01064879447221756,0.01733846589922905,0.01268806029111147
1782891182589378800,8.64637890625,-0.005283396225422621,0.02968209981918335,0.005137797445058823
1782891182599400700,8.656400634765625,-0.003050069324672222,0.038798101246356964,0.004975877236574888
1782891182609422600,8.666422607421875,0.0008717901655472815,0.038572780787944794,-0.00524939363822341
1782891182619445800,8.67644580078125,0.007804531138390303,0.03398974984884262,-0.009621771983802319
1782891182629467600,8.686467529296875,0.014157276600599289,0.03716674819588661,-0.022028444334864616
1782891182639489500,8.696489501953126,0.016559980809688568,0.04003524035215378,-0.027800047770142555
1782891182649512000,8.706511962890625,0.015874482691287994,0.04088452085852623,-0.03262036666274071
1782891182659533800,8.716533935546876,0.015685930848121643,0.03487749770283699,-0.03414476290345192
1782891182669555700,8.7265556640625,0.00406474806368351,0.03155671805143356,-0.0159759521484375
1782891182679577900,8.736577880859375,0.002427702769637108,0.012514319270849228,0.013319352641701698
1782891182689599700,8.746599853515624,0.0017579299164935946,-0.016743304207921028,0.03424195200204849
1782891182699621600,8.75662158203125,0.0068184686824679375,-0.036819275468587875,0.04313770681619644
1782891182709643800,8.766643798828126,0.01647336222231388,-0.056914523243904114,0.03673134371638298
1782891182719665700,8.776665771484375,0.02386629767715931,-0.05231444537639618,0.01982533000409603
1782891182729687800,8.786687744140625,0.022328387945890427,-0.0436687096953392,-0.00499140378087759
1782891182739709700,8.796709716796874,0.020024752244353294,-0.029176054522395134,-0.024080676957964897
1782891182749731800,8.80673193359375,0.01730174385011196,-0.01966818794608116,-0.03875475749373436
1782891182759753700,8.816753662109376,0.018527861684560776,-0.0081673264503479,-0.029958870261907578
1782891182769775600,8.826775634765625,0.013361330144107342,0.0046608541160821915,-0.014014524407684803
1782891182779797800,8.8367978515625,0.008828896097838879,0.01740913838148117,0.001748459180817008
1782891182789819600,8.846819580078124,0.006663624197244644,0.03704379126429558,0.012674212455749512
1782891182799841500,8.856841552734375,-0.002054766286164522,0.04939873144030571,0.019116399809718132
1782891182809863700,8.86686376953125,-0.0005533404182642698,0.055865101516246796,0.01818808913230896
1782891182819885800,8.8768857421875,0.002303166314959526,0.06035811826586723,0.005557247903198004
1782891182829907700,8.88690771484375,0.0037834076210856438,0.06678777188062668,-0.008073677308857441
1782891182839929900,8.896929931640624,0.004855330102145672,0.060164228081703186,-0.021776175126433372
1782891182849951700,8.90695166015625,0.004202783573418856,0.04472256824374199,-0.03217868134379387
1782891182859974700,8.916974609375,0.0047386116348207,0.025451134890317917,-0.037755873054265976
1782891182869996800,8.926996826171875,0.002702949335798621,0.006001523695886135,-0.04288625717163086
1782891182880018700,8.937018798828126,0.002517859684303403,-0.012490667402744293,-0.032935887575149536
1782891182890040600,8.94704052734375,0.002316675614565611,-0.01804119534790516,-0.00791162345558405
1782891182900062700,8.957062744140625,0.00032809318508952856,-0.02737344428896904,0.016555635258555412
1782891182910084600,8.967084716796874,-0.0036165809724479914,-0.03608943894505501,0.028291920199990273
1782891182920106800,8.977106689453125,-0.0039950162172317505,-0.03344252333045006,0.033867247402668
1782891182930129000,8.98712890625,-0.005362081341445446,-0.021670334041118622,0.031367138028144836
1782891182940150800,8.99715087890625,-0.005416942294687033,-0.0202157162129879,0.02923288196325302
1782891182950172700,9.007172607421875,-0.015066128224134445,-0.015315432101488113,0.024847183376550674
1782891182960194800,9.01719482421875,-0.01455400325357914,-0.018192976713180542,0.0215041171759367
1782891182970216700,9.027216796875,-0.018202131614089012,-0.024379068985581398,0.01696143113076687
1782891182980238600,9.037238525390626,-0.012414016760885715,-0.029059307649731636,0.01398934330791235
1782891182990260700,9.0472607421875,-0.008592220023274422,-0.023386675864458084,0.0006696813507005572
1782891183000283000,9.057282958984375,-0.0031274142675101757,-0.016594815999269485,-0.008013555780053139
1782891183010304800,9.0673046875,-0.0009292059112340212,-0.02317490242421627,-0.00010617158841341734
1782891183020326700,9.07732666015625,0.002293751575052738,-0.03468881547451019,0.006389278452843428
1782891183030348800,9.087348876953126,-0.0004107322311028838,-0.04061446338891983,0.01870007999241352
1782891183040370700,9.09737060546875,0.0006305637070909142,-0.04807717353105545,0.027507154271006584
1782891183050392600,9.107392578125,-0.0019978610798716545,-0.04534134268760681,0.025372492149472237
1782891183060414700,9.117414794921874,-0.008208884857594967,-0.0364152267575264,0.020443513989448547
1782891183070436600,9.1274365234375,-0.007928265258669853,-0.028191298246383667,0.011969395913183689
1782891183080458800,9.137458740234376,-0.003661881200969219,-0.01757034659385681,0.008581855334341526
1782891183090481700,9.147481689453125,-0.00437499862164259,-0.027424659579992294,0.0021036555990576744
1782891183100503800,9.15750390625,0.005899743176996708,-0.03671509772539139,-0.0075540319085121155
1782891183110526000,9.16752587890625,0.006992129608988762,-0.03243844211101532,-0.0166782159358263
1782891183120547800,9.1775478515625,0.0012104067718610168,-0.023089684545993805,-0.019334720447659492
1782891183130569700,9.18756982421875,-0.004892144352197647,-0.01964576542377472,-0.0002886578440666199
1782891183140591600,9.197591552734375,-0.006211208179593086,-0.027736449614167213,0.024874486029148102
1782891183150613800,9.20761376953125,-0.009442253038287163,-0.03355284407734871,0.03981435298919678
1782891183160635600,9.2176357421875,-0.016262341290712357,-0.03231660649180412,0.04879958927631378
1782891183170657500,9.227657470703125,-0.021325010806322098,-0.027648083865642548,0.04065297916531563
1782891183180679700,9.2376796875,-0.022499466314911842,-0.013208690099418163,0.02430543303489685
1782891183190701800,9.247701904296875,-0.02290085144340992,0.005817015189677477,0.005857252981513739
1782891183200723700,9.2577236328125,-0.018193181604146957,0.021978141739964485,-0.005145597271621227
1782891183210745900,9.267745849609375,-0.021760035306215286,0.026160452514886856,-0.020482409745454788
1782891183220767700,9.277767822265625,-0.02647942304611206,0.022128161042928696,-0.02820344641804695
1782891183230789600,9.28778955078125,-0.024346765130758286,0.014883298426866531,-0.016546791419386864
1782891183240812500,9.2978125,-0.017704308032989502,0.0034492826089262962,0.009337005205452442
1782891183250834700,9.307834716796876,-0.011150412261486053,-0.008878456428647041,0.028181662783026695
1782891183260856600,9.317856689453125,-0.01196933351457119,-0.0074344901368021965,0.020341049879789352
1782891183270878500,9.32787841796875,-0.007422843016684055,0.00329407025128603,0.0061201052740216255
1782891183280900600,9.337900634765624,0.0007613171474076807,0.015028225257992744,-0.016586005687713623
1782891183290922800,9.3479228515625,0.00820437166839838,0.01599753275513649,-0.025203268975019455
1782891183300944600,9.357944580078126,0.012451580725610256,0.012110384181141853,-0.025862667709589005
1782891183310967800,9.3679677734375,0.014847373589873314,0.006889387033879757,-0.028929825872182846
1782891183320989700,9.37798974609375,0.02330557256937027,0.004212111234664917,-0.022532379254698753
1782891183331011600,9.388011474609375,0.025909120216965675,-0.005169084295630455,-0.011241990141570568
1782891183341033700,9.39803369140625,0.03476332873106003,-0.019072650000452995,-0.007954583503305912
1782891183351055600,9.4080556640625,0.03289062902331352,-0.030357200652360916,-0.00020157266408205032
1782891183361077500,9.418077392578125,0.03207889571785927,-0.0303268413990736,0.013407979160547256
1782891183371099600,9.428099609375,0.029530977830290794,-0.028046224266290665,0.01320671010762453
1782891183381121500,9.43812158203125,0.019231470301747322,-0.029909640550613403,0.010758466087281704
1782891183391143700,9.448143798828125,0.01871800422668457,-0.023390021175146103,0.00689448369666934
1782891183401165800,9.458165771484374,0.0008998594130389392,-0.023530103266239166,0.016009418293833733
1782891183411187700,9.468187744140625,-0.013236608356237411,-0.03333636000752449,0.02641691267490387
1782891183421209600,9.478209716796876,-0.020546717569231987,-0.04675895720720291,0.0395662747323513
1782891183431231500,9.4882314453125,-0.01710343360900879,-0.05493061989545822,0.04812614247202873
1782891183441253600,9.498253662109375,-0.009336324408650398,-0.06052565574645996,0.042803552001714706
1782891183451275500,9.508275634765624,-0.0013616319047287107,-0.043142903596162796,0.024874482303857803
1782891183461297400,9.51829736328125,0.004529280122369528,-0.014933635480701923,-0.0004588381852954626
1782891183471319600,9.528319580078126,0.00679309107363224,0.011468179523944855,-0.019903514534235
1782891183481341700,9.538341796875,0.0012297477805987,0.02365320734679699,-0.03037905879318714
1782891183491363600,9.548363525390625,0.0006851312937214971,0.0329926460981369,-0.026381919160485268
1782891183501385700,9.5583857421875,0.00032240874134004116,0.028303086757659912,-0.018184177577495575
1782891183511407600,9.56840771484375,-0.00020515744108706713,0.020963212475180626,-0.015603836625814438
1782891183521429500,9.578429443359376,0.001636951114051044,0.019510991871356964,-0.021132025867700577
1782891183531451600,9.58845166015625,-0.006763594225049019,0.029440157115459442,-0.02527311071753502
1782891183541474600,9.598474609375,-0.00827067717909813,0.04260842129588127,-0.023746054619550705
1782891183551496400,9.608496337890625,-0.014931698329746723,0.04162776097655296,-0.01213579811155796
1782891183561518600,9.6185185546875,-0.012256286107003689,0.03000439517199993,-0.0007475895108655095
1782891183571540500,9.62854052734375,-0.013307363726198673,0.010271020233631134,0.014020639471709728
1782891183581562600,9.638562744140625,-0.003459260333329439,-0.006399835925549269,0.017879026010632515
1782891183591584800,9.648584716796876,-0.0002147960476577282,-0.01654519885778427,0.01645456813275814
1782891183601606700,9.658606689453125,-0.002437204122543335,-0.00826223473995924,0.003058602102100849
1782891183611628500,9.668628662109375,-0.0005956479581072927,0.0034602703526616096,-0.003349503967911005
1782891183621650700,9.678650634765624,0.004455836024135351,0.011064926162362099,-0.007713892497122288
1782891183631672600,9.688672607421875,0.007074002176523209,0.01007489487528801,-0.015132653526961803
1782891183641694500,9.698694580078126,0.012512177228927612,0.0048878551460802555,-0.027280131354928017
1782891183651716600,9.708716552734375,0.014961473643779755,-0.0014958721585571766,-0.030370201915502548
1782891183661738800,9.71873876953125,0.01680784299969673,-0.008385470137000084,-0.03162907809019089
1782891183671760600,9.7287607421875,0.01873166672885418,-0.015384908765554428,-0.023292245343327522
1782891183681782800,9.73878271484375,0.015755318105220795,-0.020173806697130203,-0.010130636394023895
1782891183691804700,9.7488046875,0.008409382775425911,-0.028591424226760864,0.0028508089017122984
1782891183701826600,9.75882666015625,0.005433833226561546,-0.030088653787970543,0.01833975315093994
1782891183711848400,9.768848388671875,0.0035712113603949547,-0.025212472304701805,0.029681088402867317
1782891183721870600,9.77887060546875,0.006148085929453373,-0.013944637030363083,0.03018282726407051
1782891183731892500,9.788892578125,0.00413360632956028,0.010507391765713692,0.018032222986221313
1782891183741914600,9.79891455078125,0.006058539263904095,0.04617857187986374,-0.0024221851490437984
1782891183751936800,9.808936767578125,0.0008858163491822779,0.08552086353302002,-0.04086724668741226
1782891183761958700,9.818958740234375,-0.013112024404108524,0.12791971862316132,-0.06829540431499481
1782891183771981800,9.82898193359375,-0.01988545060157776,0.14351917803287506,-0.0739232748746872
1782891183782003700,9.839003662109375,-0.03294399380683899,0.12738122045993805,-0.07701893150806427
1782891183792025600,9.849025634765624,-0.04268110170960426,0.10734973102807999,-0.06990768015384674
1782891183802047500,9.859047607421875,-0.02797805517911911,0.06758128106594086,-0.04790837690234184
1782891183812069600,9.869069580078126,-0.016926664859056473,0.029451590031385422,-0.02597811073064804
1782891183822091500,9.879091552734375,-0.005561624653637409,0.01830412819981575,-0.0010365406051278114
1782891183832113400,9.889113525390625,-0.008266545832157135,0.022224752232432365,0.02235952392220497
1782891183842135600,9.899135498046874,-0.014240281656384468,0.013021133840084076,0.04592343792319298
1782891183852157700,9.90915771484375,-0.007341479882597923,0.0188356451690197,0.05294686555862427
1782891183862179600,9.9191796875,-0.005057286471128464,0.02490951679646969,0.04070458188652992
1782891183872201700,9.92920166015625,-0.007119646295905113,0.024073749780654907,0.012052162550389767
1782891183882223600,9.9392236328125,-0.010387344285845757,0.028349455446004868,-0.01337969396263361
1782891183892245500,9.94924560546875,-0.007510259281843901,0.035852231085300446,-0.04263884574174881
1782891183902267600,9.959267578125,-0.003489685244858265,0.04309389740228653,-0.059816233813762665
1782891183912289500,9.96928955078125,0.007343917153775692,0.049632858484983444,-0.07149779051542282
1782891183922311400,9.9793115234375,0.010296830907464027,0.03743424639105797,-0.07260726392269135
1782891183932333800,9.989333740234375,0.006570535246282816,0.021966606378555298,-0.07759536057710648
1782891183942355700,9.999355712890624,0.015450846403837204,0.016190744936466217,-0.05348603427410126
1782891183952377600,10.009377685546875,0.012548080645501614,-0.0027374906931072474,-0.016307570040225983
1782891183962399700,10.019399658203126,0.009375723078846931,-0.02581591159105301,0.01601867750287056
1782891183972421600,10.029421630859375,0.0022135903127491474,-0.039210863411426544,0.049832627177238464
1782891183982443500,10.039443603515625,0.0014455347554758191,-0.05944821983575821,0.06482914835214615
1782891183992465400,10.04946533203125,0.0002748804399743676,-0.06590014696121216,0.06130226328969002
1782891184002487600,10.059487548828125,0.004321287386119366,-0.06753905117511749,0.04933268576860428
1782891184012510500,10.069510498046874,0.008432351052761078,-0.05975035950541496,0.02880590781569481
1782891184022532600,10.07953271484375,0.01848791539669037,-0.052117474377155304,0.01380778569728136
1782891184032554800,10.0895546875,0.026078710332512856,-0.0440777912735939,0.001034460263326764
1782891184042576600,10.09957666015625,0.024511439725756645,-0.0336962528526783,-0.00504686776548624
1782891184052598800,10.109598876953125,0.01841040886938572,-0.027846287935972214,-0.0055802958086133
1782891184062620700,10.11962060546875,0.010102146305143833,-0.026603391394019127,-0.012903722934424877
1782891184072642600,10.129642578125,0.004433737602084875,-0.022139299660921097,-0.012719299644231796
1782891184082664400,10.13966455078125,0.007349899038672447,-0.011973215267062187,-0.005560190416872501
1782891184092686600,10.1496865234375,0.005836987867951393,-0.0021291072480380535,-0.007306419312953949
1782891184102708500,10.15970849609375,0.004488096572458744,0.00496262451633811,-0.008740531280636787
1782891184112730600,10.169730712890624,0.004696274641901255,0.0006300099194049835,-0.003967016004025936
1782891184122752800,10.179752685546875,0.0015468202764168382,-0.004312284290790558,-0.00018479477148503065
1782891184132774700,10.189774658203126,0.0035532317124307156,-0.008434989489614964,0.003014722838997841
1782891184142796500,10.199796630859375,0.002877321559935808,-0.012859299778938293,0.0007587590953335166
1782891184152818700,10.209818603515625,0.0068431212566792965,-0.010398022830486298,-0.0053979987278580666
1782891184162840600,10.219840576171874,0.010956905782222748,0.0013001780025660992,-0.00773225910961628
1782891184172862500,10.229862548828125,0.010724304243922234,0.00045171938836574554,-0.007376417052000761
1782891184182884600,10.239884521484376,0.01678246445953846,-0.003964067902415991,-0.014801310375332832
1782891184192906500,10.249906494140625,0.022912679240107536,-0.012309256009757519,-0.02681760862469673
1782891184202928600,10.2599287109375,0.024400319904088974,-0.0178837850689888,-0.036581024527549744
1782891184212950800,10.26995068359375,0.026722675189375877,-0.02236756682395935,-0.03803570568561554
1782891184222972700,10.27997265625,0.015204237774014473,-0.020421862602233887,-0.030962616205215454
1782891184232995600,10.28999560546875,0.008423958905041218,-0.022206878289580345,-0.0072403764352202415
1782891184243016700,10.3000166015625,0.004355713725090027,-0.03799090161919594,0.017256977036595345
1782891184253038800,10.310038818359375,0.0021962798200547695,-0.05472271144390106,0.03313247486948967
1782891184263060700,10.320060791015624,0.0075787948444485664,-0.06531570106744766,0.04878680408000946
1782891184273082600,10.33008251953125,0.0062902988865971565,-0.07106970250606537,0.06177990511059761
1782891184283105000,10.34010498046875,0.009630168788135052,-0.060005072504282,0.058666668832302094
1782891184293127000,10.350126953125,0.007975599728524685,-0.04974319785833359,0.05010559409856796
1782891184303148800,10.360148681640625,0.007550825830549002,-0.04091082513332367,0.04050836339592934
1782891184313171000,10.3701708984375,0.009386755526065826,-0.03898074850440025,0.026719387620687485
1782891184323192800,10.38019287109375,0.012727958150207996,-0.043331023305654526,0.008564619347453117
1782891184333214700,10.390214599609376,0.01128286961466074,-0.03585817664861679,-0.0026243170723319054
1782891184343236900,10.40023681640625,0.006679329089820385,-0.018932456150650978,-0.015570742078125477
1782891184353258800,10.4102587890625,0.00022582034580409527,0.0005404115654528141,-0.022669799625873566
1782891184363281000,10.420281005859374,-0.006130878813564777,0.010541380383074284,-0.027613691985607147
1782891184373302800,10.430302734375,-0.003885580925270915,0.021304946392774582,-0.022613078355789185
1782891184383325000,10.440324951171876,-0.0027902231086045504,0.026379866525530815,-0.011444579809904099
1782891184393346800,10.450346923828125,-0.00461166724562645,0.030186155810952187,-0.0026671933010220528
1782891184403368700,10.46036865234375,-0.003960790578275919,0.026338951662182808,0.007944971323013306
1782891184413390800,10.470390869140624,-0.005409175530076027,0.02660144306719303,0.00827905721962452
1782891184423412700,10.480412841796875,-0.005654985085129738,0.02774420566856861,0.0002027550945058465
1782891184433434600,10.4904345703125,-0.01191821787506342,0.023998869583010674,-0.011285331100225449
1782891184443456800,10.500456787109375,-0.014570193365216255,0.02150828205049038,-0.007221879903227091
1782891184453479000,10.51047900390625,-0.013266702182590961,0.01860247179865837,-0.0026938337832689285
1782891184463500800,10.520500732421874,-0.011980661191046238,0.016101229935884476,0.0016883978387340903
1782891184473524000,10.53052392578125,-0.009942402131855488,0.020650673657655716,-0.00156904268078506
1782891184483545900,10.5405458984375,-0.012983731925487518,0.023596663028001785,-0.004321685992181301
1782891184493567700,10.550567626953125,-0.0021493807435035706,0.015617748722434044,-0.007761754095554352
1782891184503590000,10.56058984375,0.0033545740880072117,0.005956598557531834,-0.009771907702088356
1782891184513611800,10.57061181640625,0.005821043625473976,-0.004534156993031502,-0.003849176922813058
1782891184523633700,10.580633544921875,0.005545938853174448,-0.0017085433937609196,0.0007583580445498228
1782891184533655800,10.59065576171875,0.004732212983071804,-0.0027691146824508905,0.0065985387191176414
1782891184543677700,10.600677734375,-0.004295370075851679,-0.007407009601593018,0.011623390950262547
1782891184553699800,10.610699951171876,-0.004205874167382717,-0.020848650485277176,0.032295383512973785
1782891184563722000,10.620721923828125,0.0004930074792355299,-0.03724546730518341,0.04701494053006172
1782891184573743900,10.630743896484375,0.004399850498884916,-0.042165521532297134,0.04970286414027214
1782891184583765800,10.640765869140624,0.012332076206803322,-0.03638273477554321,0.041128020733594894
1782891184593788000,10.650787841796875,0.015501986257731915,-0.018419897183775902,0.01919909007847309
1782891184603809800,10.660809814453126,0.013955755159258842,0.003938139416277409,-0.008013622835278511
1782891184613831700,10.670831787109375,0.012943005189299583,0.0206893403083086,-0.025178033858537674
1782891184623853800,10.680853759765625,0.006613203790038824,0.023787926882505417,-0.02305522747337818
1782891184633876000,10.6908759765625,0.002058665733784437,0.009626835584640503,-0.016466567292809486
1782891184643897900,10.70089794921875,-0.001398649881593883,-0.001160032581537962,-0.002072980161756277
1782891184653919700,10.710919677734376,0.004093107767403126,-0.0164107047021389,0.020229320973157883
1782891184663942000,10.72094189453125,0.007141894660890102,-0.028106775134801865,0.0314478874206543
1782891184673963800,10.7309638671875,0.003789008129388094,-0.02858714573085308,0.02842867560684681
1782891184683985700,10.740985595703124,0.007440201938152313,-0.02124880626797676,0.02663423679769039
1782891184694007800,10.7510078125,0.0008348133414983749,-0.009494495578110218,0.017395926639437675
1782891184704030700,10.76103076171875,-0.005987938959151506,-0.009202079847455025,0.0075371707789599895
1782891184714052900,10.771052978515625,-0.012960497289896011,-0.007679983973503113,0.007482175715267658
1782891184724074800,10.78107470703125,-0.012728003785014153,-0.022491952404379845,0.01575555093586445
1782891184734096600,10.7910966796875,-0.010020958259701729,-0.03861631080508232,0.027766743674874306
1782891184744119000,10.801119140625,-0.007626510690897703,-0.04894458130002022,0.03319213539361954
1782891184754141000,10.811140869140624,-0.0020690388046205044,-0.042643941938877106,0.03354926034808159
1782891184764162800,10.821162841796875,0.009268836118280888,-0.027715858072042465,0.025027677416801453
1782891184774184700,10.831184814453126,0.012273338623344898,-0.009502148255705833,0.013525278307497501
1782891184784206800,10.841206787109375,0.008393113501369953,0.002858380787074566,0.007161388173699379
1782891184794228700,10.851228759765625,0.007949931547045708,0.0024874149821698666,0.008535927161574364
1782891184804250600,10.861250732421874,0.00024620501790195704,0.0006708730943500996,0.010719719342887402
1782891184814272800,10.871272705078125,-0.0007044144440442324,0.007551250047981739,0.008217012509703636
1782891184824295000,10.881294921875,-0.007439015433192253,0.01471435371786356,0.003788975067436695
1782891184834316800,10.89131689453125,-0.00713934563100338,0.030796965584158897,-0.0009014513925649226
1782891184844339000,10.9013388671875,-0.00596968550235033,0.04032202810049057,-0.011875806376338005
1782891184854360800,10.91136083984375,-0.003867926076054573,0.04515320062637329,-0.024407045915722847
1782891184864382700,10.9213828125,-0.005906576290726662,0.043305233120918274,-0.029454268515110016
1782891184874404900,10.93140478515625,-0.014584486372768879,0.04418247938156128,-0.02604355849325657
1782891184884426800,10.9414267578125,-0.02134758234024048,0.031099434942007065,-0.01184464804828167
1782891184894448600,10.95144873046875,-0.020436977967619896,0.021963045001029968,0.008050431497395039
1782891184904471000,10.961470947265624,-0.013793720863759518,0.021233072504401207,0.024852845817804337
1782891184914493000,10.971492919921875,-0.015516593120992184,0.017422504723072052,0.03540462255477905
1782891184924514800,10.981514892578126,-0.015847623348236084,0.00477755069732666,0.038423050194978714
1782891184934538000,10.9915380859375,-0.007890768349170685,0.0008199275471270084,0.03547346219420433
1782891184944559900,11.001559814453126,-0.004996710456907749,0.011911725625395775,0.019205011427402496
1782891184954581800,11.011581787109375,-0.006256593391299248,0.04397883266210556,-0.009135086089372635
1782891184964604000,11.02160400390625,-0.011429517529904842,0.06703808158636093,-0.04280250146985054
1782891184974625800,11.031625732421874,-0.005192380864173174,0.09605734050273895,-0.06004966050386429
1782891184984647700,11.041647705078125,-0.003105528187006712,0.13108910620212555,-0.07117608189582825
1782891184994669800,11.051669921875,0.004814901389181614,0.13537047803401947,-0.08202387392520905
1782891185004691700,11.061691650390625,0.018040159717202187,0.1374131292104721,-0.08090987801551819
1782891185014713900,11.0717138671875,0.019820140674710274,0.10308000445365906,-0.07632358372211456
1782891185024736000,11.081736083984374,0.026208531111478806,0.06758645921945572,-0.08153139799833298
1782891185034758000,11.0917578125,0.029658928513526917,0.04274322837591171,-0.06528131663799286
1782891185044779800,11.10177978515625,0.027291644364595413,0.022310923784971237,-0.03562435135245323
1782891185054801700,11.1118017578125,0.018283730372786522,0.0038548982702195644,-0.023534324020147324
1782891185064823800,11.12182373046875,0.014546249993145466,-0.011017524637281895,-0.014385301619768143
1782891185074845700,11.131845703125,0.00491645373404026,-0.03277673199772835,-0.016526149585843086
1782891185084867800,11.141867919921875,-0.014651654288172722,-0.07445812970399857,-0.02713698334991932
1782891185094890000,11.151889892578126,-0.04306511580944061,-0.11872880905866623,0.00879644975066185
1782891185104912000,11.161911865234375,-0.06756273657083511,-0.17323999106884003,0.0810496062040329
1782891185114933800,11.171933837890625,-0.08484546095132828,-0.24332097172737122,0.181349977850914
1782891185124956000,11.181955810546874,-0.031208058819174767,-0.28267183899879456,0.2562417984008789
1782891185134977800,11.191977783203125,-0.012493371963500977,-0.3197283446788788,0.23999132215976715
1782891185144999700,11.201999755859376,0.0039572399109601974,-0.29537826776504517,0.2296113818883896
